trial_num, prob_same,response_num, response_time,target_response, response_switch_target, actual_response, response_correct,response_switch_actual,blood sugar1,0.25,2,11822,S,,S,correct,,normal1,0.25,3,8229,S,same_key,S,correct,same_key,normal1,0.25,4,982,D,different_key,D,correct,different_key,normal1,0.25,5,884,D,same_key,S,incorrect,different_key,normal1,0.25,6,960,D,same_key,D,correct,different_key,normal1,0.25,7,1176,S,different_key,D,incorrect,same_key,normal1,0.25,8,9600,D,different_key,S,incorrect,different_key,normal1,0.25,9,1255,S,different_key,S,correct,same_key,normal1,0.25,10,647,S,same_key,S,correct,same_key,normal1,0.25,11,590,S,same_key,S,correct,same_key,normal1,0.25,12,728,D,different_key,D,correct,different_key,normal1,0.25,13,784,D,same_key,S,incorrect,different_key,normal1,0.25,14,2290,D,same_key,D,correct,different_key,normal1,0.25,15,844,D,same_key,D,correct,same_key,normal1,0.25,16,652,S,different_key,D,incorrect,same_key,normal1,0.25,17,2135,D,different_key,D,correct,same_key,normal1,0.25,18,684,S,different_key,S,correct,different_key,normal1,0.25,19,884,D,different_key,D,correct,different_key,normal1,0.25,20,979,S,different_key,S,correct,different_key,normal1,0.25,21,806,D,different_key,D,correct,different_key,normal1,0.25,22,1098,D,same_key,D,correct,same_key,normal1,0.25,23,980,D,same_key,D,correct,same_key,normal1,0.25,24,1020,D,same_key,D,correct,same_key,normal1,0.25,25,864,D,same_key,D,correct,same_key,normal2,0.75,2,826,S,,S,correct,,normal2,0.75,3,648,S,same_key,S,correct,same_key,normal2,0.75,4,630,S,same_key,S,correct,same_key,normal2,0.75,5,709,S,same_key,S,correct,same_key,normal2,0.75,6,648,S,same_key,S,correct,same_key,normal2,0.75,7,746,D,different_key,D,correct,different_key,normal2,0.75,8,845,D,same_key,D,correct,same_key,normal2,0.75,9,709,S,different_key,D,incorrect,same_key,normal2,0.75,10,899,S,same_key,S,correct,different_key,normal2,0.75,11,670,S,same_key,S,correct,same_key,normal2,0.75,12,844,S,same_key,S,correct,same_key,normal2,0.75,13,706,S,same_key,S,correct,same_key,normal2,0.75,14,630,S,same_key,S,correct,same_key,normal2,0.75,15,628,S,same_key,S,correct,same_key,normal2,0.75,16,670,S,same_key,S,correct,same_key,normal2,0.75,17,668,S,same_key,S,correct,same_key,normal2,0.75,18,706,S,same_key,S,correct,same_key,normal2,0.75,19,768,D,different_key,D,correct,different_key,normal2,0.75,20,668,S,different_key,S,correct,different_key,normal2,0.75,21,686,S,same_key,S,correct,same_key,normal2,0.75,22,610,S,same_key,S,correct,same_key,normal2,0.75,23,668,S,same_key,S,correct,same_key,normal2,0.75,24,650,S,same_key,S,correct,same_key,normal2,0.75,25,632,S,same_key,S,correct,same_key,normal2,0.75,26,704,D,different_key,D,correct,different_key,normal2,0.75,27,610,S,different_key,S,correct,different_key,normal2,0.75,28,648,S,same_key,S,correct,same_key,normal2,0.75,29,670,S,same_key,S,correct,same_key,normal2,0.75,30,571,S,same_key,S,correct,same_key,normal2,0.75,31,708,D,different_key,D,correct,different_key,normal2,0.75,32,668,S,different_key,S,correct,different_key,normal2,0.75,33,766,S,same_key,S,correct,same_key,normal2,0.75,34,570,S,same_key,S,correct,same_key,normal2,0.75,35,785,D,different_key,D,correct,different_key,normal2,0.75,36,668,S,different_key,S,correct,different_key,normal2,0.75,37,865,D,different_key,D,correct,different_key,normal2,0.75,38,979,D,same_key,D,correct,same_key,normal2,0.75,39,786,S,different_key,S,correct,different_key,normal2,0.75,40,864,D,different_key,D,correct,different_key,normal2,0.75,41,1724,D,same_key,D,correct,same_key,normal2,0.75,42,746,S,different_key,S,correct,different_key,normal2,0.75,43,610,S,same_key,S,correct,same_key,normal2,0.75,44,650,S,same_key,S,correct,same_key,normal2,0.75,45,726,S,same_key,S,correct,same_key,normal2,0.75,46,610,S,same_key,S,correct,same_key,normal2,0.75,47,708,D,different_key,D,correct,different_key,normal2,0.75,48,628,S,different_key,S,correct,different_key,normal2,0.75,49,826,D,different_key,D,correct,different_key,normal2,0.75,50,706,S,different_key,S,correct,different_key,normal2,0.75,51,746,S,same_key,S,correct,same_key,normal2,0.75,52,630,S,same_key,S,correct,same_key,normal2,0.75,53,631,S,same_key,S,correct,same_key,normal2,0.75,54,746,S,same_key,S,correct,same_key,normal2,0.75,55,571,S,same_key,S,correct,same_key,normal2,0.75,56,551,S,same_key,S,correct,same_key,normal2,0.75,57,745,D,different_key,D,correct,different_key,normal2,0.75,58,786,S,different_key,S,correct,different_key,normal2,0.75,59,766,S,same_key,S,correct,same_key,normal2,0.75,60,690,D,different_key,D,correct,different_key,normal2,0.75,61,608,S,different_key,S,correct,different_key,normal2,0.75,62,648,S,same_key,S,correct,same_key,normal2,0.75,63,728,D,different_key,D,correct,different_key,normal2,0.75,64,767,D,same_key,S,incorrect,different_key,normal2,0.75,65,1567,D,same_key,D,correct,different_key,normal2,0.75,66,726,S,different_key,S,correct,different_key,normal2,0.75,67,610,S,same_key,S,correct,same_key,normal2,0.75,68,688,S,same_key,S,correct,same_key,normal2,0.75,69,668,S,same_key,S,correct,same_key,normal2,0.75,70,648,S,same_key,S,correct,same_key,normal2,0.75,71,708,S,same_key,S,correct,same_key,normal2,0.75,72,590,S,same_key,S,correct,same_key,normal2,0.75,73,728,D,different_key,D,correct,different_key,normal2,0.75,74,590,S,different_key,S,correct,different_key,normal2,0.75,75,904,S,same_key,S,correct,same_key,normal2,0.75,76,568,S,same_key,S,correct,same_key,normal2,0.75,77,768,D,different_key,D,correct,different_key,normal2,0.75,78,1527,S,different_key,S,correct,different_key,normal2,0.75,79,630,S,same_key,S,correct,same_key,normal2,0.75,80,589,S,same_key,S,correct,same_key,normal2,0.75,81,590,S,same_key,S,correct,same_key,normal2,0.75,82,669,D,different_key,D,correct,different_key,normal3,0.75,2,668,S,,S,correct,,normal3,0.75,3,922,D,different_key,D,correct,different_key,normal3,0.75,4,572,S,different_key,S,correct,different_key,normal3,0.75,5,590,S,same_key,S,correct,same_key,normal3,0.75,6,688,D,different_key,D,correct,different_key,normal3,0.75,7,804,D,same_key,S,incorrect,different_key,normal3,0.75,8,924,S,different_key,S,correct,same_key,normal3,0.75,9,648,S,same_key,S,correct,same_key,normal3,0.75,10,668,S,same_key,S,correct,same_key,normal3,0.75,11,787,D,different_key,D,correct,different_key,normal3,0.75,12,746,S,different_key,D,incorrect,same_key,normal3,0.75,13,1414,D,different_key,D,correct,same_key,normal3,0.75,14,804,S,different_key,S,correct,different_key,normal3,0.75,15,589,S,same_key,S,correct,same_key,normal3,0.75,16,610,S,same_key,S,correct,same_key,normal3,0.75,17,746,D,different_key,D,correct,different_key,normal3,0.75,18,746,D,same_key,D,correct,same_key,normal3,0.75,19,810,S,different_key,S,correct,different_key,normal3,0.75,20,606,S,same_key,S,correct,same_key,normal3,0.75,21,648,S,same_key,S,correct,same_key,normal3,0.75,22,611,S,same_key,S,correct,same_key,normal3,0.75,23,725,D,different_key,D,correct,different_key,normal3,0.75,24,786,S,different_key,S,correct,different_key,normal3,0.75,25,590,S,same_key,S,correct,same_key,normal3,0.75,26,590,S,same_key,S,correct,same_key,normal3,0.75,27,610,S,same_key,S,correct,same_key,normal3,0.75,28,728,D,different_key,D,correct,different_key,normal3,0.75,29,688,S,different_key,S,correct,different_key,normal3,0.75,30,570,S,same_key,S,correct,same_key,normal3,0.75,31,610,S,same_key,S,correct,same_key,normal3,0.75,32,708,S,same_key,S,correct,same_key,normal3,0.75,33,726,S,same_key,S,correct,same_key,normal3,0.75,34,590,S,same_key,S,correct,same_key,normal3,0.75,35,631,S,same_key,S,correct,same_key,normal3,0.75,36,550,S,same_key,S,correct,same_key,normal3,0.75,37,572,S,same_key,S,correct,same_key,normal3,0.75,38,882,D,different_key,D,correct,different_key,normal3,0.75,39,727,S,different_key,S,correct,different_key,normal3,0.75,40,649,S,same_key,S,correct,same_key,normal3,0.75,41,667,S,same_key,S,correct,same_key,normal3,0.75,42,708,S,same_key,S,correct,same_key,normal3,0.75,43,570,S,same_key,S,correct,same_key,normal3,0.75,44,610,S,same_key,S,correct,same_key,normal3,0.75,45,552,S,same_key,S,correct,same_key,normal3,0.75,46,570,S,same_key,S,correct,same_key,normal3,0.75,47,592,S,same_key,S,correct,same_key,normal3,0.75,48,608,S,same_key,S,correct,same_key,normal3,0.75,49,590,S,same_key,S,correct,same_key,normal3,0.75,50,552,S,same_key,S,correct,same_key,normal3,0.75,51,706,D,different_key,D,correct,different_key,normal3,0.75,52,904,S,different_key,S,correct,different_key,normal3,0.75,53,588,S,same_key,S,correct,same_key,normal3,0.75,54,650,S,same_key,S,correct,same_key,normal3,0.75,55,746,D,different_key,D,correct,different_key,normal3,0.75,56,1000,D,same_key,D,correct,same_key,normal3,0.75,57,708,S,different_key,S,correct,different_key,normal3,0.75,58,864,D,different_key,D,correct,different_key,normal3,0.75,59,804,S,different_key,S,correct,different_key,normal3,0.75,60,610,S,same_key,S,correct,same_key,normal3,0.75,61,629,S,same_key,S,correct,same_key,normal3,0.75,62,532,S,same_key,S,correct,same_key,normal3,0.75,63,554,S,same_key,S,correct,same_key,normal3,0.75,64,568,S,same_key,S,correct,same_key,normal3,0.75,65,550,S,same_key,S,correct,same_key,normal3,0.75,66,572,S,same_key,S,correct,same_key,normal3,0.75,67,803,D,different_key,D,correct,different_key,normal3,0.75,68,884,D,same_key,D,correct,same_key,normal3,0.75,69,686,S,different_key,S,correct,different_key,normal3,0.75,70,573,S,same_key,S,correct,same_key,normal3,0.75,71,607,S,same_key,S,correct,same_key,normal3,0.75,72,572,S,same_key,S,correct,same_key,normal3,0.75,73,746,S,same_key,S,correct,same_key,normal3,0.75,74,844,D,different_key,D,correct,different_key,normal3,0.75,75,726,S,different_key,S,correct,different_key,normal3,0.75,76,688,S,same_key,S,correct,same_key,normal3,0.75,77,610,S,same_key,S,correct,same_key,normal3,0.75,78,786,D,different_key,D,correct,different_key,normal3,0.75,79,706,D,same_key,D,correct,same_key,normal3,0.75,80,728,S,different_key,S,correct,different_key,normal3,0.75,81,628,S,same_key,S,correct,same_key,normal3,0.75,82,572,S,same_key,S,correct,same_key,normal3,0.75,83,628,S,same_key,S,correct,same_key,normal3,0.75,84,590,S,same_key,S,correct,same_key,normal3,0.75,85,766,D,different_key,D,correct,different_key,normal3,0.75,86,746,S,different_key,S,correct,different_key,normal4,0.75,2,628,S,,S,correct,,normal4,0.75,3,532,S,same_key,S,correct,same_key,normal4,0.75,4,512,S,same_key,S,correct,same_key,normal4,0.75,5,514,S,same_key,S,correct,same_key,normal4,0.75,6,511,S,same_key,S,correct,same_key,normal4,0.75,7,552,S,same_key,S,correct,same_key,normal4,0.75,8,452,S,same_key,S,correct,same_key,normal4,0.75,9,493,S,same_key,S,correct,same_key,normal4,0.75,10,472,S,same_key,S,correct,same_key,normal4,0.75,11,552,S,same_key,S,correct,same_key,normal4,0.75,12,472,S,same_key,S,correct,same_key,normal4,0.75,13,726,D,different_key,D,correct,different_key,normal4,0.75,14,532,S,different_key,S,correct,different_key,normal4,0.75,15,477,S,same_key,S,correct,same_key,normal4,0.75,16,685,D,different_key,D,correct,different_key,normal4,0.75,17,649,D,same_key,D,correct,same_key,normal4,0.75,18,629,D,same_key,S,incorrect,different_key,normal4,0.75,19,1020,S,different_key,S,correct,same_key,normal4,0.75,20,688,D,different_key,D,correct,different_key,normal4,0.75,21,668,S,different_key,D,incorrect,same_key,normal4,0.75,22,668,S,same_key,S,correct,different_key,normal4,0.75,23,552,S,same_key,S,correct,same_key,normal4,0.75,24,706,D,different_key,D,correct,different_key,normal4,0.75,25,766,S,different_key,S,correct,different_key,normal4,0.75,26,746,D,different_key,D,correct,different_key,normal4,0.75,27,844,S,different_key,S,correct,different_key,normal4,0.75,28,532,S,same_key,S,correct,same_key,normal4,0.75,29,728,D,different_key,D,correct,different_key,normal4,0.75,30,942,S,different_key,S,correct,different_key,normal4,0.75,31,570,S,same_key,S,correct,same_key,normal4,0.75,32,766,D,different_key,D,correct,different_key,normal4,0.75,33,845,S,different_key,S,correct,different_key,normal4,0.75,34,532,S,same_key,S,correct,same_key,normal4,0.75,35,628,S,same_key,S,correct,same_key,normal4,0.75,36,651,D,different_key,D,correct,different_key,normal4,0.75,37,704,S,different_key,S,correct,different_key,normal4,0.75,38,610,S,same_key,S,correct,same_key,normal4,0.75,39,668,S,same_key,S,correct,same_key,normal4,0.75,40,630,S,same_key,S,correct,same_key,normal4,0.75,41,600,S,same_key,S,correct,same_key,normal4,0.75,42,600,S,same_key,S,correct,same_key,normal4,0.75,43,746,D,different_key,D,correct,different_key,normal4,0.75,44,824,S,different_key,S,correct,different_key,normal4,0.75,45,786,D,different_key,D,correct,different_key,normal4,0.75,46,806,S,different_key,S,correct,different_key,normal4,0.75,47,767,D,different_key,D,correct,different_key,normal4,0.75,48,767,D,same_key,D,correct,same_key,normal4,0.75,49,764,D,same_key,D,correct,same_key,normal4,0.75,50,746,S,different_key,S,correct,different_key,normal4,0.75,51,512,S,same_key,S,correct,same_key,normal4,0.75,52,708,D,different_key,D,correct,different_key,normal4,0.75,53,980,S,different_key,S,correct,different_key,normal4,0.75,54,766,D,different_key,D,correct,different_key,normal4,0.75,55,844,S,different_key,S,correct,different_key,normal4,0.75,56,610,S,same_key,S,correct,same_key,normal4,0.75,57,710,D,different_key,D,correct,different_key,normal4,0.75,58,687,D,same_key,D,correct,same_key,normal4,0.75,59,748,S,different_key,S,correct,different_key,normal4,0.75,60,608,S,same_key,S,correct,same_key,normal4,0.75,61,589,S,same_key,S,correct,same_key,normal4,0.75,62,610,S,same_key,S,correct,same_key,normal4,0.75,63,591,S,same_key,S,correct,same_key,normal4,0.75,64,571,S,same_key,S,correct,same_key,normal4,0.75,65,570,S,same_key,S,correct,same_key,normal4,0.75,66,570,S,same_key,S,correct,same_key,normal4,0.75,67,708,D,different_key,D,correct,different_key,normal4,0.75,68,746,S,different_key,S,correct,different_key,normal4,0.75,69,610,S,same_key,S,correct,same_key,normal4,0.75,70,628,S,same_key,S,correct,same_key,normal4,0.75,71,650,S,same_key,S,correct,same_key,normal4,0.75,72,630,S,same_key,S,correct,same_key,normal4,0.75,73,570,S,same_key,S,correct,same_key,normal4,0.75,74,610,S,same_key,S,correct,same_key,normal4,0.75,75,766,D,different_key,D,correct,different_key,normal4,0.75,76,786,S,different_key,S,correct,different_key,normal4,0.75,77,784,D,different_key,D,correct,different_key,normal4,0.75,78,750,D,same_key,D,correct,same_key,normal4,0.75,79,742,S,different_key,S,correct,different_key,normal4,0.75,80,532,S,same_key,S,correct,same_key,normal4,0.75,81,610,S,same_key,S,correct,same_key,normal4,0.75,82,706,D,different_key,D,correct,different_key,normal4,0.75,83,824,S,different_key,S,correct,different_key,normal4,0.75,84,729,D,different_key,D,correct,different_key,normal4,0.75,85,785,S,different_key,S,correct,different_key,normal4,0.75,86,571,S,same_key,S,correct,same_key,normal4,0.75,87,589,S,same_key,S,correct,same_key,normal4,0.75,88,844,S,same_key,S,correct,same_key,normal4,0.75,89,570,S,same_key,S,correct,same_key,normal5,0.1,2,608,D,,S,incorrect,,normal5,0.1,3,864,D,same_key,S,incorrect,same_key,normal5,0.1,4,864,D,same_key,D,correct,different_key,normal5,0.1,5,766,D,same_key,D,correct,same_key,normal5,0.1,6,669,D,same_key,D,correct,same_key,normal5,0.1,7,942,S,different_key,S,correct,different_key,normal5,0.1,8,725,D,different_key,D,correct,different_key,normal5,0.1,9,905,D,same_key,D,correct,same_key,normal5,0.1,10,979,D,same_key,D,correct,same_key,normal5,0.1,11,649,D,same_key,D,correct,same_key,normal5,0.1,12,690,D,same_key,D,correct,same_key,normal5,0.1,13,705,D,same_key,D,correct,same_key,normal5,0.1,14,688,D,same_key,D,correct,same_key,normal5,0.1,15,688,D,same_key,D,correct,same_key,normal5,0.1,16,668,D,same_key,D,correct,same_key,normal5,0.1,17,628,D,same_key,D,correct,same_key,normal5,0.1,18,708,D,same_key,D,correct,same_key,normal5,0.1,19,864,D,same_key,D,correct,same_key,normal5,0.1,20,689,D,same_key,D,correct,same_key,normal5,0.1,21,745,S,different_key,S,correct,different_key,normal5,0.1,22,690,D,different_key,D,correct,different_key,normal5,0.1,23,822,D,same_key,D,correct,same_key,normal5,0.1,24,924,D,same_key,D,correct,same_key,normal5,0.1,25,668,D,same_key,D,correct,same_key,normal5,0.1,26,688,D,same_key,D,correct,same_key,normal5,0.1,27,688,D,same_key,D,correct,same_key,normal5,0.1,28,648,D,same_key,D,correct,same_key,normal5,0.1,29,630,D,same_key,D,correct,same_key,normal5,0.1,30,671,D,same_key,D,correct,same_key,normal5,0.1,31,685,D,same_key,D,correct,same_key,normal5,0.1,32,825,D,same_key,S,incorrect,different_key,normal5,0.1,33,843,D,same_key,D,correct,different_key,normal5,0.1,34,806,D,same_key,D,correct,same_key,normal5,0.1,35,787,D,same_key,D,correct,same_key,normal5,0.1,36,609,D,same_key,D,correct,same_key,normal5,0.1,37,669,D,same_key,D,correct,same_key,normal5,0.1,38,726,D,same_key,D,correct,same_key,normal5,0.1,39,727,D,same_key,D,correct,same_key,normal5,0.1,40,706,D,same_key,D,correct,same_key,normal5,0.1,41,688,D,same_key,D,correct,same_key,normal5,0.1,42,650,S,different_key,D,incorrect,same_key,normal5,0.1,43,746,D,different_key,D,correct,same_key,normal5,0.1,44,1158,D,same_key,D,correct,same_key,normal5,0.1,45,786,D,same_key,D,correct,same_key,normal5,0.1,46,862,S,different_key,S,correct,different_key,normal5,0.1,47,904,D,different_key,D,correct,different_key,normal5,0.1,48,766,D,same_key,D,correct,same_key,normal5,0.1,49,864,D,same_key,D,correct,same_key,normal5,0.1,50,668,D,same_key,D,correct,same_key,normal5,0.1,51,668,D,same_key,D,correct,same_key,normal5,0.1,52,628,D,same_key,D,correct,same_key,normal5,0.1,53,786,D,same_key,D,correct,same_key,normal5,0.1,54,650,D,same_key,D,correct,same_key,normal5,0.1,55,803,D,same_key,D,correct,same_key,normal5,0.1,56,708,D,same_key,D,correct,same_key,normal5,0.1,57,649,D,same_key,D,correct,same_key,normal5,0.1,58,1019,D,same_key,D,correct,same_key,normal5,0.1,59,656,D,same_key,D,correct,same_key,normal5,0.1,60,738,D,same_key,D,correct,same_key,normal5,0.1,61,668,D,same_key,D,correct,same_key,normal5,0.1,62,610,D,same_key,D,correct,same_key,normal5,0.1,63,668,D,same_key,D,correct,same_key,normal5,0.1,64,631,D,same_key,D,correct,same_key,normal5,0.1,65,627,D,same_key,D,correct,same_key,normal5,0.1,66,670,D,same_key,D,correct,same_key,normal5,0.1,67,571,D,same_key,D,correct,same_key,normal5,0.1,68,707,S,different_key,S,correct,different_key,normal5,0.1,69,668,D,different_key,D,correct,different_key,normal5,0.1,70,688,D,same_key,D,correct,same_key,normal5,0.1,71,628,D,same_key,D,correct,same_key,normal5,0.1,72,728,D,same_key,D,correct,same_key,normal5,0.1,73,668,D,same_key,D,correct,same_key,normal5,0.1,74,590,D,same_key,D,correct,same_key,normal5,0.1,75,1078,D,same_key,D,correct,same_key,normal5,0.1,76,668,D,same_key,D,correct,same_key,normal5,0.1,77,767,D,same_key,D,correct,same_key,normal5,0.1,78,688,D,same_key,D,correct,same_key,normal5,0.1,79,708,D,same_key,D,correct,same_key,normal5,0.1,80,959,D,same_key,D,correct,same_key,normal5,0.1,81,610,D,same_key,D,correct,same_key,normal6,0.75,2,686,D,,D,correct,,normal6,0.75,3,826,S,different_key,D,incorrect,same_key,normal6,0.75,4,1119,S,same_key,S,correct,different_key,normal6,0.75,5,764,D,different_key,D,correct,different_key,normal6,0.75,6,766,S,different_key,S,correct,different_key,normal6,0.75,7,668,S,same_key,S,correct,same_key,normal6,0.75,8,687,D,different_key,D,correct,different_key,normal6,0.75,9,688,D,same_key,D,correct,same_key,normal6,0.75,10,982,S,different_key,S,correct,different_key,normal6,0.75,11,1624,D,different_key,D,correct,different_key,normal6,0.75,12,1802,D,same_key,S,incorrect,different_key,normal6,0.75,13,1196,S,different_key,S,correct,same_key,normal6,0.75,14,628,S,same_key,S,correct,same_key,normal6,0.75,15,512,S,same_key,S,correct,same_key,normal6,0.75,16,514,S,same_key,S,correct,same_key,normal6,0.75,17,706,D,different_key,D,correct,different_key,normal6,0.75,18,709,S,different_key,S,correct,different_key,normal6,0.75,19,491,S,same_key,S,correct,same_key,normal6,0.75,20,709,D,different_key,D,correct,different_key,normal6,0.75,21,529,S,different_key,S,correct,different_key,normal6,0.75,22,552,S,same_key,S,correct,same_key,normal6,0.75,23,532,S,same_key,S,correct,same_key,normal6,0.75,24,570,S,same_key,S,correct,same_key,normal6,0.75,25,570,S,same_key,S,correct,same_key,normal6,0.75,26,532,S,same_key,S,correct,same_key,normal6,0.75,27,532,S,same_key,S,correct,same_key,normal6,0.75,28,513,D,different_key,S,incorrect,same_key,normal6,0.75,29,610,S,different_key,S,correct,same_key,normal6,0.75,30,570,S,same_key,S,correct,same_key,normal6,0.75,31,511,S,same_key,S,correct,same_key,normal6,0.75,32,590,S,same_key,S,correct,same_key,normal6,0.75,33,492,D,different_key,S,incorrect,same_key,normal6,0.75,34,512,S,different_key,S,correct,same_key,normal6,0.75,35,1334,D,different_key,D,correct,different_key,normal6,0.75,36,747,S,different_key,S,correct,different_key,normal6,0.75,37,511,S,same_key,S,correct,same_key,normal6,0.75,38,688,D,different_key,D,correct,different_key,normal6,0.75,39,824,S,different_key,S,correct,different_key,normal6,0.75,40,649,S,same_key,S,correct,same_key,normal6,0.75,41,610,S,same_key,S,correct,same_key,normal6,0.75,42,572,S,same_key,S,correct,same_key,normal6,0.75,43,592,S,same_key,S,correct,same_key,normal6,0.75,44,646,S,same_key,S,correct,same_key,normal6,0.75,45,1020,S,same_key,S,correct,same_key,normal6,0.75,46,512,S,same_key,S,correct,same_key,normal6,0.75,47,804,D,different_key,D,correct,different_key,normal6,0.75,48,592,S,different_key,S,correct,different_key,normal6,0.75,49,532,S,same_key,S,correct,same_key,normal6,0.75,50,648,S,same_key,S,correct,same_key,normal6,0.75,51,572,S,same_key,S,correct,same_key,normal6,0.75,52,726,D,different_key,D,correct,different_key,normal6,0.75,53,492,S,different_key,S,correct,different_key,normal6,0.75,54,708,S,same_key,S,correct,same_key,normal6,0.75,55,787,D,different_key,D,correct,different_key,normal6,0.75,56,745,S,different_key,S,correct,different_key,normal6,0.75,57,824,D,different_key,D,correct,different_key,normal6,0.75,58,768,S,different_key,S,correct,different_key,normal6,0.75,59,628,S,same_key,S,correct,same_key,normal6,0.75,60,730,D,different_key,D,correct,different_key,normal6,0.75,61,646,S,different_key,S,correct,different_key,normal6,0.75,62,728,D,different_key,D,correct,different_key,normal6,0.75,63,729,S,different_key,S,correct,different_key,normal6,0.75,64,666,S,same_key,S,correct,same_key,normal6,0.75,65,727,D,different_key,D,correct,different_key,normal6,0.75,66,552,S,different_key,S,correct,different_key,normal6,0.75,67,692,S,same_key,S,correct,same_key,normal6,0.75,68,646,S,same_key,S,correct,same_key,normal6,0.75,69,628,S,same_key,S,correct,same_key,normal6,0.75,70,748,D,different_key,D,correct,different_key,normal6,0.75,71,804,D,same_key,D,correct,same_key,normal6,0.75,72,668,D,same_key,D,correct,same_key,normal6,0.75,73,728,S,different_key,S,correct,different_key,normal6,0.75,74,728,D,different_key,D,correct,different_key,normal6,0.75,75,668,S,different_key,S,correct,different_key,normal6,0.75,76,630,S,same_key,S,correct,same_key,normal6,0.75,77,608,S,same_key,S,correct,same_key,normal6,0.75,78,690,S,same_key,S,correct,same_key,normal6,0.75,79,688,S,same_key,S,correct,same_key,normal6,0.75,80,611,S,same_key,S,correct,same_key,normal6,0.75,81,590,S,same_key,S,correct,same_key,normal6,0.75,82,590,S,same_key,S,correct,same_key,normal6,0.75,83,569,S,same_key,S,correct,same_key,normal6,0.75,84,570,S,same_key,S,correct,same_key,normal7,0.9,2,570,S,,S,correct,,normal7,0.9,3,688,D,different_key,D,correct,different_key,normal7,0.9,4,884,S,different_key,S,correct,different_key,normal7,0.9,5,552,S,same_key,S,correct,same_key,normal7,0.9,6,648,S,same_key,S,correct,same_key,normal7,0.9,7,551,S,same_key,S,correct,same_key,normal7,0.9,8,589,S,same_key,S,correct,same_key,normal7,0.9,9,610,S,same_key,S,correct,same_key,normal7,0.9,10,648,S,same_key,S,correct,same_key,normal7,0.9,11,592,S,same_key,S,correct,same_key,normal7,0.9,12,570,S,same_key,S,correct,same_key,normal7,0.9,13,570,S,same_key,S,correct,same_key,normal7,0.9,14,592,S,same_key,S,correct,same_key,normal7,0.9,15,784,D,different_key,D,correct,different_key,normal7,0.9,16,631,D,same_key,S,incorrect,different_key,normal7,0.9,17,1000,S,different_key,S,correct,same_key,normal7,0.9,18,570,S,same_key,S,correct,same_key,normal7,0.9,19,629,S,same_key,S,correct,same_key,normal7,0.9,20,550,S,same_key,S,correct,same_key,normal7,0.9,21,575,S,same_key,S,correct,same_key,normal7,0.9,22,587,S,same_key,S,correct,same_key,normal7,0.9,23,746,D,different_key,D,correct,different_key,normal7,0.9,24,550,S,different_key,S,correct,different_key,normal7,0.9,25,532,S,same_key,S,correct,same_key,normal7,0.9,26,610,S,same_key,S,correct,same_key,normal7,0.9,27,628,S,same_key,S,correct,same_key,normal7,0.9,28,494,S,same_key,S,correct,same_key,normal7,0.9,29,690,D,different_key,D,correct,different_key,normal7,0.9,30,626,S,different_key,S,correct,different_key,normal7,0.9,31,570,S,same_key,S,correct,same_key,normal7,0.9,32,590,S,same_key,S,correct,same_key,normal7,0.9,33,532,S,same_key,S,correct,same_key,normal7,0.9,34,572,S,same_key,S,correct,same_key,normal7,0.9,35,550,S,same_key,S,correct,same_key,normal7,0.9,36,570,S,same_key,S,correct,same_key,normal7,0.9,37,572,S,same_key,S,correct,same_key,normal7,0.9,38,590,S,same_key,S,correct,same_key,normal7,0.9,39,590,S,same_key,S,correct,same_key,normal7,0.9,40,590,S,same_key,S,correct,same_key,normal7,0.9,41,552,S,same_key,S,correct,same_key,normal7,0.9,42,570,S,same_key,S,correct,same_key,normal7,0.9,43,747,D,different_key,D,correct,different_key,normal7,0.9,44,728,S,different_key,S,correct,different_key,normal7,0.9,45,804,D,different_key,D,correct,different_key,normal7,0.9,46,590,S,different_key,S,correct,different_key,normal7,0.9,47,629,S,same_key,S,correct,same_key,normal7,0.9,48,628,S,same_key,S,correct,same_key,normal7,0.9,49,748,D,different_key,D,correct,different_key,normal7,0.9,50,570,S,different_key,S,correct,different_key,normal7,0.9,51,688,D,different_key,D,correct,different_key,normal7,0.9,52,668,D,same_key,S,incorrect,different_key,normal7,0.9,53,922,S,different_key,S,correct,same_key,normal7,0.9,54,688,D,different_key,D,correct,different_key,normal7,0.9,55,983,S,different_key,S,correct,different_key,normal7,0.9,56,627,S,same_key,S,correct,same_key,normal7,0.9,57,590,S,same_key,S,correct,same_key,normal7,0.9,58,630,S,same_key,S,correct,same_key,normal7,0.9,59,611,S,same_key,S,correct,same_key,normal7,0.9,60,589,S,same_key,S,correct,same_key,normal7,0.9,61,610,S,same_key,S,correct,same_key,normal7,0.9,62,746,D,different_key,D,correct,different_key,normal7,0.9,63,512,S,different_key,S,correct,different_key,normal7,0.9,64,628,S,same_key,S,correct,same_key,normal7,0.9,65,454,S,same_key,S,correct,same_key,normal7,0.9,66,630,S,same_key,S,correct,same_key,normal7,0.9,67,532,S,same_key,S,correct,same_key,normal7,0.9,68,532,S,same_key,S,correct,same_key,normal7,0.9,69,687,D,different_key,D,correct,different_key,normal7,0.9,70,494,S,different_key,S,correct,different_key,normal7,0.9,71,512,S,same_key,S,correct,same_key,normal7,0.9,72,550,S,same_key,S,correct,same_key,normal7,0.9,73,511,S,same_key,S,correct,same_key,normal7,0.9,74,533,S,same_key,S,correct,same_key,normal7,0.9,75,551,S,same_key,S,correct,same_key,normal7,0.9,76,532,S,same_key,S,correct,same_key,normal7,0.9,77,570,S,same_key,S,correct,same_key,normal7,0.9,78,590,S,same_key,S,correct,same_key,normal7,0.9,79,492,S,same_key,S,correct,same_key,normal7,0.9,80,532,S,same_key,S,correct,same_key,normal7,0.9,81,532,S,same_key,S,correct,same_key,normal7,0.9,82,492,S,same_key,S,correct,same_key,normal7,0.9,83,532,S,same_key,S,correct,same_key,normal7,0.9,84,512,S,same_key,S,correct,same_key,normal7,0.9,85,530,S,same_key,S,correct,same_key,normal7,0.9,86,514,S,same_key,S,correct,same_key,normal7,0.9,87,726,D,different_key,D,correct,different_key,normal7,0.9,88,886,S,different_key,S,correct,different_key,normal7,0.9,89,568,S,same_key,S,correct,same_key,normal7,0.9,90,572,S,same_key,S,correct,same_key,normal7,0.9,91,570,S,same_key,S,correct,same_key,normal7,0.9,92,550,S,same_key,S,correct,same_key,normal7,0.9,93,532,S,same_key,S,correct,same_key,normal7,0.9,94,748,D,different_key,D,correct,different_key,normal7,0.9,95,648,S,different_key,S,correct,different_key,normal7,0.9,96,532,S,same_key,S,correct,same_key,normal7,0.9,97,530,S,same_key,S,correct,same_key,normal8,0.9,2,550,S,,S,correct,,normal8,0.9,3,552,S,same_key,S,correct,same_key,normal8,0.9,4,454,S,same_key,S,correct,same_key,normal8,0.9,5,492,S,same_key,S,correct,same_key,normal8,0.9,6,512,S,same_key,S,correct,same_key,normal8,0.9,7,492,S,same_key,S,correct,same_key,normal8,0.9,8,512,S,same_key,S,correct,same_key,normal8,0.9,9,494,S,same_key,S,correct,same_key,normal8,0.9,10,510,S,same_key,S,correct,same_key,normal8,0.9,11,492,S,same_key,S,correct,same_key,normal8,0.9,12,474,S,same_key,S,correct,same_key,normal8,0.9,13,492,S,same_key,S,correct,same_key,normal8,0.9,14,455,S,same_key,S,correct,same_key,normal8,0.9,15,473,S,same_key,S,correct,same_key,normal8,0.9,16,512,S,same_key,S,correct,same_key,normal8,0.9,17,492,S,same_key,S,correct,same_key,normal8,0.9,18,532,S,same_key,S,correct,same_key,normal8,0.9,19,492,S,same_key,S,correct,same_key,normal8,0.9,20,512,S,same_key,S,correct,same_key,normal8,0.9,21,492,S,same_key,S,correct,same_key,normal8,0.9,22,472,S,same_key,S,correct,same_key,normal8,0.9,23,494,D,different_key,S,incorrect,same_key,normal8,0.9,24,902,S,different_key,D,incorrect,different_key,normal8,0.9,25,1491,S,same_key,S,correct,different_key,normal8,0.9,26,452,D,different_key,S,incorrect,same_key,normal8,0.9,27,864,S,different_key,D,incorrect,different_key,normal8,0.9,28,590,S,same_key,S,correct,different_key,normal8,0.9,29,747,S,same_key,S,correct,same_key,normal8,0.9,30,550,S,same_key,S,correct,same_key,normal8,0.9,31,512,D,different_key,S,incorrect,same_key,normal8,0.9,32,1179,S,different_key,D,incorrect,different_key,normal8,0.9,33,1175,D,different_key,D,correct,same_key,normal8,0.9,34,590,S,different_key,S,correct,different_key,normal8,0.9,35,472,S,same_key,S,correct,same_key,normal8,0.9,36,552,S,same_key,S,correct,same_key,normal8,0.9,37,514,S,same_key,S,correct,same_key,normal8,0.9,38,452,S,same_key,S,correct,same_key,normal8,0.9,39,530,S,same_key,S,correct,same_key,normal8,0.9,40,532,S,same_key,S,correct,same_key,normal8,0.9,41,494,S,same_key,S,correct,same_key,normal8,0.9,42,550,S,same_key,S,correct,same_key,normal8,0.9,43,492,S,same_key,S,correct,same_key,normal8,0.9,44,494,S,same_key,S,correct,same_key,normal8,0.9,45,493,S,same_key,S,correct,same_key,normal8,0.9,46,491,S,same_key,S,correct,same_key,normal8,0.9,47,512,S,same_key,S,correct,same_key,normal8,0.9,48,532,S,same_key,S,correct,same_key,normal8,0.9,49,532,S,same_key,S,correct,same_key,normal8,0.9,50,532,D,different_key,S,incorrect,same_key,normal8,0.9,51,784,S,different_key,D,incorrect,different_key,normal8,0.9,52,846,S,same_key,S,correct,different_key,normal8,0.9,53,492,S,same_key,S,correct,same_key,normal8,0.9,54,495,S,same_key,S,correct,same_key,normal8,0.9,55,414,S,same_key,S,correct,same_key,normal8,0.9,56,510,D,different_key,S,incorrect,same_key,normal8,0.9,57,1059,S,different_key,S,correct,same_key,normal8,0.9,58,494,D,different_key,S,incorrect,same_key,normal8,0.9,59,1334,S,different_key,S,correct,same_key,normal8,0.9,60,548,S,same_key,S,correct,same_key,normal8,0.9,61,670,S,same_key,S,correct,same_key,normal8,0.9,62,688,S,same_key,S,correct,same_key,normal8,0.9,63,766,D,different_key,D,correct,different_key,normal8,0.9,64,1020,S,different_key,S,correct,different_key,normal8,0.9,65,512,S,same_key,S,correct,same_key,normal8,0.9,66,610,S,same_key,S,correct,same_key,normal8,0.9,67,550,S,same_key,S,correct,same_key,normal8,0.9,68,552,S,same_key,S,correct,same_key,normal8,0.9,69,572,S,same_key,S,correct,same_key,normal8,0.9,70,472,S,same_key,S,correct,same_key,normal8,0.9,71,552,S,same_key,S,correct,same_key,normal8,0.9,72,512,S,same_key,S,correct,same_key,normal8,0.9,73,530,S,same_key,S,correct,same_key,normal8,0.9,74,532,S,same_key,S,correct,same_key,normal8,0.9,75,532,S,same_key,S,correct,same_key,normal8,0.9,76,532,S,same_key,S,correct,same_key,normal8,0.9,77,492,S,same_key,S,correct,same_key,normal8,0.9,78,512,S,same_key,S,correct,same_key,normal8,0.9,79,492,S,same_key,S,correct,same_key,normal8,0.9,80,688,S,same_key,S,correct,same_key,normal8,0.9,81,434,S,same_key,S,correct,same_key,normal8,0.9,82,494,S,same_key,S,correct,same_key,normal8,0.9,83,513,S,same_key,S,correct,same_key,normal8,0.9,84,706,D,different_key,D,correct,different_key,normal8,0.9,85,551,S,different_key,S,correct,different_key,normal8,0.9,86,454,S,same_key,S,correct,same_key,normal8,0.9,87,512,S,same_key,S,correct,same_key,normal8,0.9,88,454,S,same_key,S,correct,same_key,normal8,0.9,89,512,S,same_key,S,correct,same_key,normal8,0.9,90,493,S,same_key,S,correct,same_key,normal8,0.9,91,473,S,same_key,S,correct,same_key,normal8,0.9,92,512,S,same_key,S,correct,same_key,normal8,0.9,93,512,S,same_key,S,correct,same_key,normal8,0.9,94,492,S,same_key,S,correct,same_key,normal8,0.9,95,728,S,same_key,S,correct,same_key,normal8,0.9,96,452,S,same_key,S,correct,same_key,normal8,0.9,97,474,S,same_key,S,correct,same_key,normal8,0.9,98,492,S,same_key,S,correct,same_key,normal8,0.9,99,532,S,same_key,S,correct,same_key,normal8,0.9,100,570,S,same_key,S,correct,same_key,normal8,0.9,101,746,D,different_key,D,correct,different_key,normal8,0.9,102,572,S,different_key,S,correct,different_key,normal8,0.9,103,608,S,same_key,S,correct,same_key,normal9,0.75,2,884,S,,S,correct,,normal9,0.75,3,454,S,same_key,S,correct,same_key,normal9,0.75,4,492,D,different_key,S,incorrect,same_key,normal9,0.75,5,806,S,different_key,S,correct,same_key,normal9,0.75,6,472,S,same_key,S,correct,same_key,normal9,0.75,7,553,S,same_key,S,correct,same_key,normal9,0.75,8,590,S,same_key,S,correct,same_key,normal9,0.75,9,687,D,different_key,D,correct,different_key,normal9,0.75,10,512,D,same_key,S,incorrect,different_key,normal9,0.75,11,1197,S,different_key,S,correct,same_key,normal9,0.75,12,589,S,same_key,S,correct,same_key,normal9,0.75,13,786,D,different_key,D,correct,different_key,normal9,0.75,14,806,S,different_key,S,correct,different_key,normal9,0.75,15,550,S,same_key,S,correct,same_key,normal9,0.75,16,552,S,same_key,S,correct,same_key,normal9,0.75,17,530,S,same_key,S,correct,same_key,normal9,0.75,18,514,D,different_key,S,incorrect,same_key,normal9,0.75,19,766,S,different_key,S,correct,same_key,normal9,0.75,20,550,S,same_key,S,correct,same_key,normal9,0.75,21,570,S,same_key,S,correct,same_key,normal9,0.75,22,532,S,same_key,S,correct,same_key,normal9,0.75,23,748,D,different_key,D,correct,different_key,normal9,0.75,24,512,S,different_key,S,correct,different_key,normal9,0.75,25,530,S,same_key,S,correct,same_key,normal9,0.75,26,590,S,same_key,S,correct,same_key,normal9,0.75,27,572,S,same_key,S,correct,same_key,normal9,0.75,28,746,D,different_key,D,correct,different_key,normal9,0.75,29,512,S,different_key,S,correct,different_key,normal9,0.75,30,552,S,same_key,S,correct,same_key,normal9,0.75,31,550,S,same_key,S,correct,same_key,normal9,0.75,32,571,S,same_key,S,correct,same_key,normal9,0.75,33,572,S,same_key,S,correct,same_key,normal9,0.75,34,688,D,different_key,D,correct,different_key,normal9,0.75,35,766,D,same_key,D,correct,same_key,normal9,0.75,36,687,S,different_key,S,correct,different_key,normal9,0.75,37,551,S,same_key,S,correct,same_key,normal9,0.75,38,531,S,same_key,S,correct,same_key,normal9,0.75,39,512,D,different_key,S,incorrect,same_key,normal9,0.75,40,748,S,different_key,S,correct,same_key,normal9,0.75,41,452,S,same_key,S,correct,same_key,normal9,0.75,42,552,S,same_key,S,correct,same_key,normal9,0.75,43,550,S,same_key,S,correct,same_key,normal9,0.75,44,494,S,same_key,S,correct,same_key,normal9,0.75,45,570,S,same_key,S,correct,same_key,normal9,0.75,46,492,S,same_key,S,correct,same_key,normal9,0.75,47,532,S,same_key,S,correct,same_key,normal9,0.75,48,708,D,different_key,D,correct,different_key,normal9,0.75,49,550,S,different_key,S,correct,different_key,normal9,0.75,50,494,D,different_key,S,incorrect,same_key,normal9,0.75,51,1001,D,same_key,D,correct,different_key,normal9,0.75,52,707,D,same_key,D,correct,same_key,normal9,0.75,53,728,D,same_key,D,correct,same_key,normal9,0.75,54,804,D,same_key,D,correct,same_key,normal9,0.75,55,786,S,different_key,S,correct,different_key,normal9,0.75,56,688,D,different_key,D,correct,different_key,normal9,0.75,57,726,S,different_key,D,incorrect,same_key,normal9,0.75,58,884,S,same_key,S,correct,different_key,normal9,0.75,59,552,S,same_key,S,correct,same_key,normal9,0.75,60,669,S,same_key,S,correct,same_key,normal9,0.75,61,726,D,different_key,D,correct,different_key,normal9,0.75,62,843,S,different_key,S,correct,different_key,normal9,0.75,63,590,S,same_key,S,correct,same_key,normal9,0.75,64,690,D,different_key,D,correct,different_key,normal9,0.75,65,804,S,different_key,S,correct,different_key,normal9,0.75,66,514,S,same_key,S,correct,same_key,normal9,0.75,67,568,S,same_key,S,correct,same_key,normal9,0.75,68,806,S,same_key,S,correct,same_key,normal9,0.75,69,746,D,different_key,D,correct,different_key,normal9,0.75,70,884,D,same_key,D,correct,same_key,normal9,0.75,71,766,D,same_key,D,correct,same_key,normal9,0.75,72,708,D,same_key,D,correct,same_key,normal9,0.75,73,688,S,different_key,S,correct,different_key,normal9,0.75,74,590,S,same_key,S,correct,same_key,normal9,0.75,75,552,S,same_key,S,correct,same_key,normal9,0.75,76,786,D,different_key,D,correct,different_key,normal9,0.75,77,766,S,different_key,S,correct,different_key,normal9,0.75,78,570,S,same_key,S,correct,same_key,normal9,0.75,79,552,S,same_key,S,correct,same_key,normal9,0.75,80,512,S,same_key,S,correct,same_key,normal9,0.75,81,532,S,same_key,S,correct,same_key,normal9,0.75,82,530,S,same_key,S,correct,same_key,normal9,0.75,83,512,S,same_key,S,correct,same_key,normal9,0.75,84,512,D,different_key,S,incorrect,same_key,normal9,0.75,85,864,S,different_key,S,correct,same_key,normal9,0.75,86,571,S,same_key,S,correct,same_key,normal9,0.75,87,592,S,same_key,S,correct,same_key,normal9,0.75,88,550,S,same_key,S,correct,same_key,normal9,0.75,89,552,S,same_key,S,correct,same_key,normal9,0.75,90,531,S,same_key,S,correct,same_key,normal9,0.75,91,592,S,same_key,S,correct,same_key,normal9,0.75,92,724,D,different_key,D,correct,different_key,normal9,0.75,93,572,S,different_key,S,correct,different_key,normal9,0.75,94,551,S,same_key,S,correct,same_key,normal10,0.75,2,550,S,,S,correct,,normal10,0.75,3,474,S,same_key,S,correct,same_key,normal10,0.75,4,432,S,same_key,S,correct,same_key,normal10,0.75,5,494,D,different_key,S,incorrect,same_key,normal10,0.75,6,766,S,different_key,S,correct,same_key,normal10,0.75,7,472,S,same_key,S,correct,same_key,normal10,0.75,8,590,S,same_key,S,correct,same_key,normal10,0.75,9,708,D,different_key,D,correct,different_key,normal10,0.75,10,570,S,different_key,S,correct,different_key,normal10,0.75,11,532,S,same_key,S,correct,same_key,normal10,0.75,12,553,S,same_key,S,correct,same_key,normal10,0.75,13,511,S,same_key,S,correct,same_key,normal10,0.75,14,530,S,same_key,S,correct,same_key,normal10,0.75,15,475,S,same_key,S,correct,same_key,normal10,0.75,16,492,S,same_key,S,correct,same_key,normal10,0.75,17,434,D,different_key,S,incorrect,same_key,normal10,0.75,18,687,S,different_key,S,correct,same_key,normal10,0.75,19,455,S,same_key,S,correct,same_key,normal10,0.75,20,491,S,same_key,S,correct,same_key,normal10,0.75,21,550,S,same_key,S,correct,same_key,normal10,0.75,22,553,S,same_key,S,correct,same_key,normal10,0.75,23,589,S,same_key,S,correct,same_key,normal10,0.75,24,552,S,same_key,S,correct,same_key,normal10,0.75,25,532,S,same_key,S,correct,same_key,normal10,0.75,26,530,S,same_key,S,correct,same_key,normal10,0.75,27,572,S,same_key,S,correct,same_key,normal10,0.75,28,590,S,same_key,S,correct,same_key,normal10,0.75,29,512,S,same_key,S,correct,same_key,normal10,0.75,30,512,S,same_key,S,correct,same_key,normal10,0.75,31,746,D,different_key,D,correct,different_key,normal10,0.75,32,512,S,different_key,S,correct,different_key,normal10,0.75,33,570,S,same_key,S,correct,same_key,normal10,0.75,34,512,S,same_key,S,correct,same_key,normal10,0.75,35,552,S,same_key,S,correct,same_key,normal10,0.75,36,492,S,same_key,S,correct,same_key,normal10,0.75,37,532,S,same_key,S,correct,same_key,normal10,0.75,38,492,D,different_key,S,incorrect,same_key,normal10,0.75,39,1002,D,same_key,D,correct,different_key,normal10,0.75,40,864,S,different_key,S,correct,different_key,normal10,0.75,41,512,S,same_key,S,correct,same_key,normal10,0.75,42,590,S,same_key,S,correct,same_key,normal10,0.75,43,610,S,same_key,S,correct,same_key,normal10,0.75,44,532,S,same_key,S,correct,same_key,normal10,0.75,45,550,S,same_key,S,correct,same_key,normal10,0.75,46,767,D,different_key,D,correct,different_key,normal10,0.75,47,748,D,same_key,D,correct,same_key,normal10,0.75,48,687,S,different_key,S,correct,different_key,normal10,0.75,49,824,D,different_key,D,correct,different_key,normal10,0.75,50,902,D,same_key,D,correct,same_key,normal10,0.75,51,807,D,same_key,D,correct,same_key,normal10,0.75,52,687,D,same_key,D,correct,same_key,normal10,0.75,53,748,D,same_key,D,correct,same_key,normal10,0.75,54,844,S,different_key,S,correct,different_key,normal10,0.75,55,570,S,same_key,S,correct,same_key,normal10,0.75,56,786,D,different_key,D,correct,different_key,normal10,0.75,57,746,D,same_key,D,correct,same_key,normal10,0.75,58,708,D,same_key,D,correct,same_key,normal10,0.75,59,728,D,same_key,D,correct,same_key,normal10,0.75,60,726,S,different_key,S,correct,different_key,normal10,0.75,61,590,S,same_key,S,correct,same_key,normal10,0.75,62,590,S,same_key,S,correct,same_key,normal10,0.75,63,766,S,same_key,S,correct,same_key,normal10,0.75,64,532,S,same_key,S,correct,same_key,normal10,0.75,65,532,S,same_key,S,correct,same_key,normal10,0.75,66,532,S,same_key,S,correct,same_key,normal10,0.75,67,552,S,same_key,S,correct,same_key,normal10,0.75,68,706,D,different_key,D,correct,different_key,normal10,0.75,69,688,S,different_key,S,correct,different_key,normal10,0.75,70,728,S,same_key,S,correct,same_key,normal10,0.75,71,591,S,same_key,S,correct,same_key,normal10,0.75,72,630,S,same_key,S,correct,same_key,normal10,0.75,73,688,D,different_key,D,correct,different_key,normal10,0.75,74,746,S,different_key,S,correct,different_key,normal10,0.75,75,610,S,same_key,S,correct,same_key,normal10,0.75,76,569,S,same_key,S,correct,same_key,normal10,0.75,77,591,S,same_key,S,correct,same_key,normal10,0.75,78,591,S,same_key,S,correct,same_key,normal10,0.75,79,571,S,same_key,S,correct,same_key,normal10,0.75,80,725,D,different_key,D,correct,different_key,normal10,0.75,81,691,S,different_key,S,correct,different_key,normal10,0.75,82,627,S,same_key,S,correct,same_key,normal10,0.75,83,610,S,same_key,S,correct,same_key,normal10,0.75,84,610,S,same_key,S,correct,same_key,normal10,0.75,85,590,S,same_key,S,correct,same_key,normal10,0.75,86,590,S,same_key,S,correct,same_key,normal10,0.75,87,630,S,same_key,S,correct,same_key,normal10,0.75,88,726,D,different_key,D,correct,different_key,normal10,0.75,89,650,D,same_key,S,incorrect,different_key,normal10,0.75,90,1332,D,same_key,D,correct,different_key,normal10,0.75,91,630,S,different_key,S,correct,different_key,normal10,0.75,92,630,S,same_key,S,correct,same_key,normal10,0.75,93,708,S,same_key,S,correct,same_key,normal11,0.1,2,844,D,,S,incorrect,,normal11,0.1,3,1178,D,same_key,D,correct,different_key,normal11,0.1,4,746,D,same_key,D,correct,same_key,normal11,0.1,5,668,D,same_key,D,correct,same_key,normal11,0.1,6,668,D,same_key,D,correct,same_key,normal11,0.1,7,649,D,same_key,D,correct,same_key,normal11,0.1,8,630,D,same_key,D,correct,same_key,normal11,0.1,9,826,D,same_key,D,correct,same_key,normal11,0.1,10,805,D,same_key,D,correct,same_key,normal11,0.1,11,608,D,same_key,D,correct,same_key,normal11,0.1,12,650,D,same_key,D,correct,same_key,normal11,0.1,13,690,D,same_key,D,correct,same_key,normal11,0.1,14,704,D,same_key,D,correct,same_key,normal11,0.1,15,866,D,same_key,D,correct,same_key,normal11,0.1,16,492,D,same_key,D,correct,same_key,normal11,0.1,17,686,D,same_key,D,correct,same_key,normal11,0.1,18,592,D,same_key,D,correct,same_key,normal11,0.1,19,648,D,same_key,D,correct,same_key,normal11,0.1,20,922,S,different_key,S,correct,different_key,normal11,0.1,21,806,D,different_key,D,correct,different_key,normal11,0.1,22,668,D,same_key,D,correct,same_key,normal11,0.1,23,591,D,same_key,D,correct,same_key,normal11,0.1,24,669,D,same_key,D,correct,same_key,normal11,0.1,25,570,D,same_key,D,correct,same_key,normal11,0.1,26,610,D,same_key,D,correct,same_key,normal11,0.1,27,590,D,same_key,D,correct,same_key,normal11,0.1,28,922,S,different_key,S,correct,different_key,normal11,0.1,29,766,D,different_key,D,correct,different_key,normal11,0.1,30,592,D,same_key,D,correct,same_key,normal11,0.1,31,746,D,same_key,D,correct,same_key,normal11,0.1,32,885,S,different_key,S,correct,different_key,normal11,0.1,33,708,D,different_key,D,correct,different_key,normal11,0.1,34,708,D,same_key,D,correct,same_key,normal11,0.1,35,609,D,same_key,D,correct,same_key,normal11,0.1,36,648,D,same_key,D,correct,same_key,normal11,0.1,37,668,D,same_key,D,correct,same_key,normal11,0.1,38,630,D,same_key,D,correct,same_key,normal11,0.1,39,610,D,same_key,D,correct,same_key,normal11,0.1,40,746,D,same_key,D,correct,same_key,normal11,0.1,41,690,D,same_key,D,correct,same_key,normal11,0.1,42,668,D,same_key,D,correct,same_key,normal11,0.1,43,610,D,same_key,D,correct,same_key,normal11,0.1,44,668,D,same_key,D,correct,same_key,normal11,0.1,45,630,D,same_key,D,correct,same_key,normal11,0.1,46,628,D,same_key,D,correct,same_key,normal11,0.1,47,650,D,same_key,D,correct,same_key,normal11,0.1,48,648,D,same_key,D,correct,same_key,normal11,0.1,49,630,D,same_key,D,correct,same_key,normal11,0.1,50,864,S,different_key,S,correct,different_key,normal11,0.1,51,1040,D,different_key,D,correct,different_key,normal11,0.1,52,882,D,same_key,D,correct,same_key,normal11,0.1,53,630,D,same_key,D,correct,same_key,normal11,0.1,54,630,D,same_key,D,correct,same_key,normal11,0.1,55,610,D,same_key,D,correct,same_key,normal11,0.1,56,628,D,same_key,D,correct,same_key,normal11,0.1,57,610,D,same_key,D,correct,same_key,normal11,0.1,58,651,D,same_key,D,correct,same_key,normal11,0.1,59,611,D,same_key,D,correct,same_key,normal11,0.1,60,607,D,same_key,D,correct,same_key,normal11,0.1,61,649,D,same_key,D,correct,same_key,normal11,0.1,62,630,D,same_key,D,correct,same_key,normal11,0.1,63,726,D,same_key,D,correct,same_key,normal11,0.1,64,650,D,same_key,D,correct,same_key,normal11,0.1,65,746,D,same_key,D,correct,same_key,normal11,0.1,66,688,D,same_key,D,correct,same_key,normal11,0.1,67,668,D,same_key,D,correct,same_key,normal11,0.1,68,630,D,same_key,D,correct,same_key,normal11,0.1,69,706,D,same_key,D,correct,same_key,normal11,0.1,70,690,D,same_key,D,correct,same_key,normal11,0.1,71,668,D,same_key,D,correct,same_key,normal11,0.1,72,726,D,same_key,D,correct,same_key,normal11,0.1,73,728,D,same_key,D,correct,same_key,normal11,0.1,74,688,D,same_key,D,correct,same_key,normal11,0.1,75,726,D,same_key,D,correct,same_key,normal11,0.1,76,630,D,same_key,D,correct,same_key,normal11,0.1,77,1020,S,different_key,S,correct,different_key,normal11,0.1,78,688,D,different_key,D,correct,different_key,normal11,0.1,79,648,D,same_key,D,correct,same_key,normal11,0.1,80,688,D,same_key,D,correct,same_key,normal11,0.1,81,670,D,same_key,D,correct,same_key,normal11,0.1,82,668,D,same_key,D,correct,same_key,normal11,0.1,83,611,D,same_key,D,correct,same_key,normal11,0.1,84,570,D,same_key,D,correct,same_key,normal11,0.1,85,687,D,same_key,D,correct,same_key,normal11,0.1,86,650,D,same_key,D,correct,same_key,normal12,0.75,2,610,S,,S,correct,,normal12,0.75,3,747,D,different_key,D,correct,different_key,normal12,0.75,4,768,D,same_key,D,correct,same_key,normal12,0.75,5,666,S,different_key,D,incorrect,same_key,normal12,0.75,6,1021,S,same_key,S,correct,different_key,normal12,0.75,7,570,S,same_key,S,correct,same_key,normal12,0.75,8,610,S,same_key,S,correct,same_key,normal12,0.75,9,560,S,same_key,S,correct,same_key,normal12,0.75,10,542,S,same_key,S,correct,same_key,normal12,0.75,11,590,S,same_key,S,correct,same_key,normal12,0.75,12,512,S,same_key,S,correct,same_key,normal12,0.75,13,552,S,same_key,S,correct,same_key,normal12,0.75,14,610,S,same_key,S,correct,same_key,normal12,0.75,15,650,S,same_key,S,correct,same_key,normal12,0.75,16,590,S,same_key,S,correct,same_key,normal12,0.75,17,570,S,same_key,S,correct,same_key,normal12,0.75,18,514,S,same_key,S,correct,same_key,normal12,0.75,19,570,S,same_key,S,correct,same_key,normal12,0.75,20,533,S,same_key,S,correct,same_key,normal12,0.75,21,532,D,different_key,S,incorrect,same_key,normal12,0.75,22,1098,S,different_key,S,correct,same_key,normal12,0.75,23,532,S,same_key,S,correct,same_key,normal12,0.75,24,511,S,same_key,S,correct,same_key,normal12,0.75,25,473,D,different_key,S,incorrect,same_key,normal12,0.75,26,591,S,different_key,S,correct,same_key,normal12,0.75,27,570,S,same_key,S,correct,same_key,normal12,0.75,28,787,D,different_key,D,correct,different_key,normal12,0.75,29,803,S,different_key,S,correct,different_key,normal12,0.75,30,514,S,same_key,S,correct,same_key,normal12,0.75,31,550,S,same_key,S,correct,same_key,normal12,0.75,32,532,S,same_key,S,correct,same_key,normal12,0.75,33,492,S,same_key,S,correct,same_key,normal12,0.75,34,532,S,same_key,S,correct,same_key,normal12,0.75,35,492,S,same_key,S,correct,same_key,normal12,0.75,36,552,S,same_key,S,correct,same_key,normal12,0.75,37,532,S,same_key,S,correct,same_key,normal12,0.75,38,492,S,same_key,S,correct,same_key,normal12,0.75,39,728,D,different_key,D,correct,different_key,normal12,0.75,40,688,S,different_key,S,correct,different_key,normal12,0.75,41,512,S,same_key,S,correct,same_key,normal12,0.75,42,610,S,same_key,S,correct,same_key,normal12,0.75,43,456,S,same_key,S,correct,same_key,normal12,0.75,44,626,S,same_key,S,correct,same_key,normal12,0.75,45,532,S,same_key,S,correct,same_key,normal12,0.75,46,590,S,same_key,S,correct,same_key,normal12,0.75,47,590,D,different_key,S,incorrect,same_key,normal12,0.75,48,766,S,different_key,S,correct,same_key,normal12,0.75,49,553,D,different_key,S,incorrect,same_key,normal12,0.75,50,804,S,different_key,S,correct,same_key,normal12,0.75,51,551,S,same_key,S,correct,same_key,normal12,0.75,52,591,S,same_key,S,correct,same_key,normal12,0.75,53,589,S,same_key,S,correct,same_key,normal12,0.75,54,552,S,same_key,S,correct,same_key,normal12,0.75,55,648,S,same_key,S,correct,same_key,normal12,0.75,56,552,S,same_key,S,correct,same_key,normal12,0.75,57,610,S,same_key,S,correct,same_key,normal12,0.75,58,571,S,same_key,S,correct,same_key,normal12,0.75,59,571,S,same_key,S,correct,same_key,normal12,0.75,60,688,D,different_key,D,correct,different_key,normal12,0.75,61,668,S,different_key,S,correct,different_key,normal12,0.75,62,630,S,same_key,S,correct,same_key,normal12,0.75,63,610,S,same_key,S,correct,same_key,normal12,0.75,64,746,D,different_key,D,correct,different_key,normal12,0.75,65,726,S,different_key,S,correct,different_key,normal12,0.75,66,514,S,same_key,S,correct,same_key,normal12,0.75,67,708,D,different_key,D,correct,different_key,normal12,0.75,68,804,S,different_key,S,correct,different_key,normal12,0.75,69,572,S,same_key,S,correct,same_key,normal12,0.75,70,648,S,same_key,S,correct,same_key,normal12,0.75,71,610,S,same_key,S,correct,same_key,normal12,0.75,72,726,D,different_key,D,correct,different_key,normal12,0.75,73,1236,D,same_key,S,incorrect,different_key,normal12,0.75,74,982,D,same_key,D,correct,different_key,normal12,0.75,75,689,S,different_key,S,correct,different_key,normal12,0.75,76,570,S,same_key,S,correct,same_key,normal12,0.75,77,551,S,same_key,S,correct,same_key,normal12,0.75,78,590,S,same_key,S,correct,same_key,normal12,0.75,79,709,S,same_key,S,correct,same_key,normal12,0.75,80,534,S,same_key,S,correct,same_key,normal12,0.75,81,568,S,same_key,S,correct,same_key,normal12,0.75,82,569,S,same_key,S,correct,same_key,normal12,0.75,83,670,D,different_key,D,correct,different_key,normal12,0.75,84,610,S,different_key,S,correct,different_key,normal12,0.75,85,590,S,same_key,S,correct,same_key,normal12,0.75,86,688,S,same_key,S,correct,same_key,normal12,0.75,87,752,D,different_key,D,correct,different_key,normal12,0.75,88,761,S,different_key,S,correct,different_key,normal12,0.75,89,766,D,different_key,D,correct,different_key,normal12,0.75,90,708,S,different_key,S,correct,different_key,normal12,0.75,91,648,S,same_key,S,correct,same_key,normal12,0.75,92,766,D,different_key,D,correct,different_key,normal12,0.75,93,766,S,different_key,S,correct,different_key,normal12,0.75,94,516,D,different_key,S,incorrect,same_key,normal13,0.75,2,590,S,,S,correct,,normal13,0.75,3,512,S,same_key,S,correct,same_key,normal13,0.75,4,494,D,different_key,S,incorrect,same_key,normal13,0.75,5,980,S,different_key,S,correct,same_key,normal13,0.75,6,532,S,same_key,S,correct,same_key,normal13,0.75,7,572,S,same_key,S,correct,same_key,normal13,0.75,8,550,S,same_key,S,correct,same_key,normal13,0.75,9,496,S,same_key,S,correct,same_key,normal13,0.75,10,548,S,same_key,S,correct,same_key,normal13,0.75,11,748,D,different_key,D,correct,different_key,normal13,0.75,12,922,S,different_key,S,correct,different_key,normal13,0.75,13,532,S,same_key,S,correct,same_key,normal13,0.75,14,706,D,different_key,D,correct,different_key,normal13,0.75,15,630,S,different_key,S,correct,different_key,normal13,0.75,16,572,S,same_key,S,correct,same_key,normal13,0.75,17,570,S,same_key,S,correct,same_key,normal13,0.75,18,552,S,same_key,S,correct,same_key,normal13,0.75,19,513,S,same_key,S,correct,same_key,normal13,0.75,20,706,D,different_key,D,correct,different_key,normal13,0.75,21,454,S,different_key,S,correct,different_key,normal13,0.75,22,786,D,different_key,D,correct,different_key,normal13,0.75,23,864,D,same_key,D,correct,same_key,normal13,0.75,24,864,D,same_key,D,correct,same_key,normal13,0.75,25,687,D,same_key,D,correct,same_key,normal13,0.75,26,845,S,different_key,S,correct,different_key,normal13,0.75,27,609,S,same_key,S,correct,same_key,normal13,0.75,28,512,S,same_key,S,correct,same_key,normal13,0.75,29,474,S,same_key,S,correct,same_key,normal13,0.75,30,492,S,same_key,S,correct,same_key,normal13,0.75,31,512,S,same_key,S,correct,same_key,normal13,0.75,32,532,S,same_key,S,correct,same_key,normal13,0.75,33,472,S,same_key,S,correct,same_key,normal13,0.75,34,514,S,same_key,S,correct,same_key,normal13,0.75,35,530,S,same_key,S,correct,same_key,normal13,0.75,36,590,S,same_key,S,correct,same_key,normal13,0.75,37,532,S,same_key,S,correct,same_key,normal13,0.75,38,532,S,same_key,S,correct,same_key,normal13,0.75,39,688,D,different_key,D,correct,different_key,normal13,0.75,40,610,S,different_key,S,correct,different_key,normal13,0.75,41,492,D,different_key,S,incorrect,same_key,normal13,0.75,42,1450,S,different_key,S,correct,same_key,normal13,0.75,43,610,S,same_key,S,correct,same_key,normal13,0.75,44,532,S,same_key,S,correct,same_key,normal13,0.75,45,512,S,same_key,S,correct,same_key,normal13,0.75,46,474,S,same_key,S,correct,same_key,normal13,0.75,47,493,S,same_key,S,correct,same_key,normal13,0.75,48,766,D,different_key,D,correct,different_key,normal13,0.75,49,610,S,different_key,S,correct,different_key,normal13,0.75,50,492,S,same_key,S,correct,same_key,normal13,0.75,51,551,S,same_key,S,correct,same_key,normal13,0.75,52,746,D,different_key,D,correct,different_key,normal13,0.75,53,688,S,different_key,S,correct,different_key,normal13,0.75,54,552,S,same_key,S,correct,same_key,normal13,0.75,55,610,S,same_key,S,correct,same_key,normal13,0.75,56,570,S,same_key,S,correct,same_key,normal13,0.75,57,512,S,same_key,S,correct,same_key,normal13,0.75,58,552,S,same_key,S,correct,same_key,normal13,0.75,59,532,S,same_key,S,correct,same_key,normal13,0.75,60,804,D,different_key,D,correct,different_key,normal13,0.75,61,592,S,different_key,S,correct,different_key,normal13,0.75,62,512,S,same_key,S,correct,same_key,normal13,0.75,63,628,S,same_key,S,correct,same_key,normal13,0.75,64,572,S,same_key,S,correct,same_key,normal13,0.75,65,550,S,same_key,S,correct,same_key,normal13,0.75,66,768,D,different_key,D,correct,different_key,normal13,0.75,67,510,S,different_key,S,correct,different_key,normal13,0.75,68,552,S,same_key,S,correct,same_key,normal13,0.75,69,726,D,different_key,D,correct,different_key,normal13,0.75,70,726,S,different_key,S,correct,different_key,normal13,0.75,71,552,S,same_key,S,correct,same_key,normal13,0.75,72,708,D,different_key,D,correct,different_key,normal13,0.75,73,706,S,different_key,S,correct,different_key,normal13,0.75,74,610,S,same_key,S,correct,same_key,normal13,0.75,75,727,S,same_key,S,correct,same_key,normal13,0.75,76,592,S,same_key,S,correct,same_key,normal13,0.75,77,747,D,different_key,D,correct,different_key,normal13,0.75,78,529,S,different_key,S,correct,different_key,normal13,0.75,79,688,D,different_key,D,correct,different_key,normal13,0.75,80,863,D,same_key,D,correct,same_key,normal13,0.75,81,766,S,different_key,S,correct,different_key,normal13,0.75,82,746,D,different_key,D,correct,different_key,normal13,0.75,83,728,S,different_key,S,correct,different_key,normal13,0.75,84,628,S,same_key,S,correct,same_key,normal13,0.75,85,552,S,same_key,S,correct,same_key,normal13,0.75,86,726,D,different_key,D,correct,different_key,normal13,0.75,87,670,S,different_key,S,correct,different_key,normal13,0.75,88,766,D,different_key,D,correct,different_key,normal13,0.75,89,786,S,different_key,S,correct,different_key,normal13,0.75,90,648,S,same_key,S,correct,same_key,normal13,0.75,91,590,S,same_key,S,correct,same_key,normal13,0.75,92,532,S,same_key,S,correct,same_key,normal13,0.75,93,804,D,different_key,D,correct,different_key,normal13,0.75,94,630,D,same_key,S,incorrect,different_key,normal14,0.75,2,549,S,,S,correct,,normal14,0.75,3,728,D,different_key,D,correct,different_key,normal14,0.75,4,706,S,different_key,S,correct,different_key,normal14,0.75,5,572,S,same_key,S,correct,same_key,normal14,0.75,6,512,S,same_key,S,correct,same_key,normal14,0.75,7,512,S,same_key,S,correct,same_key,normal14,0.75,8,512,S,same_key,S,correct,same_key,normal14,0.75,9,533,S,same_key,S,correct,same_key,normal14,0.75,10,688,D,different_key,D,correct,different_key,normal14,0.75,11,627,S,different_key,S,correct,different_key,normal14,0.75,12,570,S,same_key,S,correct,same_key,normal14,0.75,13,592,S,same_key,S,correct,same_key,normal14,0.75,14,1078,D,different_key,D,correct,different_key,normal14,0.75,15,512,S,different_key,S,correct,different_key,normal14,0.75,16,610,S,same_key,S,correct,same_key,normal14,0.75,17,550,S,same_key,S,correct,same_key,normal14,0.75,18,552,S,same_key,S,correct,same_key,normal14,0.75,19,512,S,same_key,S,correct,same_key,normal14,0.75,20,512,S,same_key,S,correct,same_key,normal14,0.75,21,530,S,same_key,S,correct,same_key,normal14,0.75,22,728,D,different_key,D,correct,different_key,normal14,0.75,23,824,D,same_key,D,correct,same_key,normal14,0.75,24,748,S,different_key,S,correct,different_key,normal14,0.75,25,726,D,different_key,D,correct,different_key,normal14,0.75,26,708,S,different_key,S,correct,different_key,normal14,0.75,27,630,S,same_key,S,correct,same_key,normal14,0.75,28,550,S,same_key,S,correct,same_key,normal14,0.75,29,766,D,different_key,D,correct,different_key,normal14,0.75,30,688,S,different_key,S,correct,different_key,normal14,0.75,31,552,S,same_key,S,correct,same_key,normal14,0.75,32,570,S,same_key,S,correct,same_key,normal14,0.75,33,532,S,same_key,S,correct,same_key,normal14,0.75,34,590,S,same_key,S,correct,same_key,normal14,0.75,35,590,S,same_key,S,correct,same_key,normal14,0.75,36,553,S,same_key,S,correct,same_key,normal14,0.75,37,550,S,same_key,S,correct,same_key,normal14,0.75,38,590,S,same_key,S,correct,same_key,normal14,0.75,39,531,S,same_key,S,correct,same_key,normal14,0.75,40,571,S,same_key,S,correct,same_key,normal14,0.75,41,551,S,same_key,S,correct,same_key,normal14,0.75,42,590,S,same_key,S,correct,same_key,normal14,0.75,43,570,S,same_key,S,correct,same_key,normal14,0.75,44,652,S,same_key,S,correct,same_key,normal14,0.75,45,510,S,same_key,S,correct,same_key,normal14,0.75,46,610,S,same_key,S,correct,same_key,normal14,0.75,47,570,S,same_key,S,correct,same_key,normal14,0.75,48,728,D,different_key,D,correct,different_key,normal14,0.75,49,628,S,different_key,S,correct,different_key,normal14,0.75,50,590,S,same_key,S,correct,same_key,normal14,0.75,51,512,S,same_key,S,correct,same_key,normal14,0.75,52,532,D,different_key,S,incorrect,same_key,normal14,0.75,53,1080,S,different_key,S,correct,same_key,normal14,0.75,54,746,D,different_key,D,correct,different_key,normal14,0.75,55,806,D,same_key,D,correct,same_key,normal14,0.75,56,648,S,different_key,S,correct,different_key,normal14,0.75,57,726,S,same_key,S,correct,same_key,normal14,0.75,58,670,S,same_key,S,correct,same_key,normal14,0.75,59,766,D,different_key,D,correct,different_key,normal14,0.75,60,648,S,different_key,S,correct,different_key,normal14,0.75,61,610,S,same_key,S,correct,same_key,normal14,0.75,62,630,S,same_key,S,correct,same_key,normal14,0.75,63,550,S,same_key,S,correct,same_key,normal14,0.75,64,553,S,same_key,S,correct,same_key,normal14,0.75,65,570,S,same_key,S,correct,same_key,normal14,0.75,66,532,S,same_key,S,correct,same_key,normal14,0.75,67,806,D,different_key,D,correct,different_key,normal14,0.75,68,823,D,same_key,D,correct,same_key,normal14,0.75,69,806,D,same_key,D,correct,same_key,normal14,0.75,70,766,S,different_key,S,correct,different_key,normal14,0.75,71,570,S,same_key,S,correct,same_key,normal14,0.75,72,590,S,same_key,S,correct,same_key,normal14,0.75,73,570,S,same_key,S,correct,same_key,normal14,0.75,74,552,S,same_key,S,correct,same_key,normal14,0.75,75,550,S,same_key,S,correct,same_key,normal14,0.75,76,670,S,same_key,S,correct,same_key,normal14,0.75,77,530,S,same_key,S,correct,same_key,normal14,0.75,78,532,S,same_key,S,correct,same_key,normal14,0.75,79,532,S,same_key,S,correct,same_key,normal14,0.75,80,512,S,same_key,S,correct,same_key,normal14,0.75,81,610,S,same_key,S,correct,same_key,normal14,0.75,82,570,S,same_key,S,correct,same_key,normal14,0.75,83,590,S,same_key,S,correct,same_key,normal14,0.75,84,512,S,same_key,S,correct,same_key,normal14,0.75,85,570,S,same_key,S,correct,same_key,normal14,0.75,86,532,S,same_key,S,correct,same_key,normal14,0.75,87,650,S,same_key,S,correct,same_key,normal14,0.75,88,530,S,same_key,S,correct,same_key,normal14,0.75,89,806,D,different_key,D,correct,different_key,normal14,0.75,90,766,S,different_key,S,correct,different_key,normal14,0.75,91,649,S,same_key,S,correct,same_key,normal14,0.75,92,650,S,same_key,S,correct,same_key,normal14,0.75,93,902,D,different_key,D,correct,different_key,normal14,0.75,94,610,S,different_key,S,correct,different_key,normal14,0.75,95,688,S,same_key,S,correct,same_key,normal15,0.1,2,1335,D,,D,correct,,normal15,0.1,3,763,D,same_key,D,correct,same_key,normal15,0.1,4,686,D,same_key,D,correct,same_key,normal15,0.1,5,768,D,same_key,D,correct,same_key,normal15,0.1,6,628,D,same_key,D,correct,same_key,normal15,0.1,7,648,D,same_key,D,correct,same_key,normal15,0.1,8,864,S,different_key,S,correct,different_key,normal15,0.1,9,824,D,different_key,D,correct,different_key,normal15,0.1,10,806,D,same_key,D,correct,same_key,normal15,0.1,11,786,D,same_key,D,correct,same_key,normal15,0.1,12,706,S,different_key,S,correct,different_key,normal15,0.1,13,768,D,different_key,D,correct,different_key,normal15,0.1,14,728,D,same_key,D,correct,same_key,normal15,0.1,15,727,D,same_key,D,correct,same_key,normal15,0.1,16,608,D,same_key,D,correct,same_key,normal15,0.1,17,708,D,same_key,D,correct,same_key,normal15,0.1,18,647,D,same_key,D,correct,same_key,normal15,0.1,19,728,D,same_key,D,correct,same_key,normal15,0.1,20,629,D,same_key,D,correct,same_key,normal15,0.1,21,669,D,same_key,D,correct,same_key,normal15,0.1,22,668,D,same_key,D,correct,same_key,normal15,0.1,23,746,S,different_key,S,correct,different_key,normal15,0.1,24,806,D,different_key,D,correct,different_key,normal15,0.1,25,648,D,same_key,D,correct,same_key,normal15,0.1,26,1352,D,same_key,D,correct,same_key,normal15,0.1,27,630,D,same_key,D,correct,same_key,normal15,0.1,28,706,D,same_key,D,correct,same_key,normal15,0.1,29,668,D,same_key,D,correct,same_key,normal15,0.1,30,650,D,same_key,D,correct,same_key,normal15,0.1,31,648,D,same_key,D,correct,same_key,normal15,0.1,32,766,D,same_key,D,correct,same_key,normal15,0.1,33,668,D,same_key,D,correct,same_key,normal15,0.1,34,630,D,same_key,D,correct,same_key,normal15,0.1,35,648,S,different_key,S,correct,different_key,normal15,0.1,36,688,D,different_key,D,correct,different_key,normal15,0.1,37,688,D,same_key,D,correct,same_key,normal15,0.1,38,845,D,same_key,D,correct,same_key,normal15,0.1,39,688,D,same_key,D,correct,same_key,normal15,0.1,40,648,D,same_key,D,correct,same_key,normal15,0.1,41,728,D,same_key,D,correct,same_key,normal15,0.1,42,725,D,same_key,D,correct,same_key,normal15,0.1,43,590,D,same_key,D,correct,same_key,normal15,0.1,44,651,D,same_key,D,correct,same_key,normal15,0.1,45,607,D,same_key,D,correct,same_key,normal15,0.1,46,630,D,same_key,D,correct,same_key,normal15,0.1,47,610,D,same_key,D,correct,same_key,normal15,0.1,48,610,D,same_key,D,correct,same_key,normal15,0.1,49,628,D,same_key,D,correct,same_key,normal15,0.1,50,671,D,same_key,D,correct,same_key,normal15,0.1,51,745,D,same_key,D,correct,same_key,normal15,0.1,52,668,D,same_key,D,correct,same_key,normal15,0.1,53,1002,S,different_key,S,correct,different_key,normal15,0.1,54,706,D,different_key,D,correct,different_key,normal15,0.1,55,806,S,different_key,D,incorrect,same_key,normal15,0.1,56,1332,S,same_key,S,correct,different_key,normal15,0.1,57,746,D,different_key,D,correct,different_key,normal15,0.1,58,1274,D,same_key,D,correct,same_key,normal15,0.1,59,768,D,same_key,D,correct,same_key,normal15,0.1,60,706,D,same_key,D,correct,same_key,normal15,0.1,61,728,D,same_key,D,correct,same_key,normal15,0.1,62,669,D,same_key,D,correct,same_key,normal15,0.1,63,783,D,same_key,D,correct,same_key,normal15,0.1,64,905,D,same_key,D,correct,same_key,normal15,0.1,65,746,S,different_key,S,correct,different_key,normal15,0.1,66,1393,D,different_key,D,correct,different_key,normal15,0.1,67,706,D,same_key,D,correct,same_key,normal15,0.1,68,786,D,same_key,D,correct,same_key,normal15,0.1,69,648,D,same_key,D,correct,same_key,normal15,0.1,70,650,D,same_key,D,correct,same_key,normal15,0.1,71,726,D,same_key,D,correct,same_key,normal15,0.1,72,804,D,same_key,D,correct,same_key,normal15,0.1,73,728,S,different_key,S,correct,different_key,normal15,0.1,74,728,D,different_key,D,correct,different_key,normal15,0.1,75,706,D,same_key,D,correct,same_key,normal15,0.1,76,706,D,same_key,D,correct,same_key,normal15,0.1,77,806,D,same_key,D,correct,same_key,normal15,0.1,78,608,D,same_key,D,correct,same_key,normal15,0.1,79,688,D,same_key,D,correct,same_key,normal15,0.1,80,650,D,same_key,D,correct,same_key,normal16,0.1,2,1256,D,,D,correct,,normal16,0.1,3,648,D,same_key,D,correct,same_key,normal16,0.1,4,1334,D,same_key,D,correct,same_key,normal16,0.1,5,1762,D,same_key,D,correct,same_key,normal16,0.1,6,1139,D,same_key,D,correct,same_key,normal16,0.1,7,941,D,same_key,D,correct,same_key,normal16,0.1,8,668,D,same_key,D,correct,same_key,normal16,0.1,9,688,D,same_key,D,correct,same_key,normal16,0.1,10,628,D,same_key,D,correct,same_key,normal16,0.1,11,1352,D,same_key,D,correct,same_key,normal16,0.1,12,670,D,same_key,D,correct,same_key,normal16,0.1,13,510,D,same_key,D,correct,same_key,normal16,0.1,14,630,D,same_key,D,correct,same_key,normal16,0.1,15,590,D,same_key,D,correct,same_key,normal16,0.1,16,552,D,same_key,D,correct,same_key,normal16,0.1,17,608,D,same_key,D,correct,same_key,normal16,0.1,18,630,D,same_key,D,correct,same_key,normal16,0.1,19,591,D,same_key,D,correct,same_key,normal16,0.1,20,864,S,different_key,S,correct,different_key,normal16,0.1,21,668,D,different_key,D,correct,different_key,normal16,0.1,22,552,D,same_key,D,correct,same_key,normal16,0.1,23,628,D,same_key,D,correct,same_key,normal16,0.1,24,688,D,same_key,D,correct,same_key,normal16,0.1,25,767,S,different_key,S,correct,different_key,normal16,0.1,26,706,D,different_key,D,correct,different_key,normal16,0.1,27,904,D,same_key,D,correct,same_key,normal16,0.1,28,628,D,same_key,D,correct,same_key,normal16,0.1,29,610,D,same_key,D,correct,same_key,normal16,0.1,30,650,D,same_key,D,correct,same_key,normal16,0.1,31,550,D,same_key,D,correct,same_key,normal16,0.1,32,708,D,same_key,D,correct,same_key,normal16,0.1,33,610,D,same_key,D,correct,same_key,normal16,0.1,34,804,S,different_key,S,correct,different_key,normal16,0.1,35,844,D,different_key,D,correct,different_key,normal16,0.1,36,590,D,same_key,D,correct,same_key,normal16,0.1,37,512,D,same_key,D,correct,same_key,normal16,0.1,38,631,D,same_key,D,correct,same_key,normal16,0.1,39,511,D,same_key,D,correct,same_key,normal16,0.1,40,532,S,different_key,D,incorrect,same_key,normal16,0.1,41,844,D,different_key,D,correct,same_key,normal16,0.1,42,668,D,same_key,D,correct,same_key,normal16,0.1,43,728,D,same_key,D,correct,same_key,normal16,0.1,44,628,D,same_key,D,correct,same_key,normal16,0.1,45,671,S,different_key,D,incorrect,same_key,normal16,0.1,46,688,D,different_key,D,correct,same_key,normal16,0.1,47,864,D,same_key,D,correct,same_key,normal16,0.1,48,1369,D,same_key,D,correct,same_key,normal16,0.1,49,650,D,same_key,D,correct,same_key,normal16,0.1,50,824,D,same_key,D,correct,same_key,normal16,0.1,51,631,D,same_key,D,correct,same_key,normal16,0.1,52,765,D,same_key,D,correct,same_key,normal16,0.1,53,902,D,same_key,D,correct,same_key,normal16,0.1,54,670,D,same_key,D,correct,same_key,normal16,0.1,55,726,D,same_key,D,correct,same_key,normal16,0.1,56,648,D,same_key,D,correct,same_key,normal16,0.1,57,786,S,different_key,S,correct,different_key,normal16,0.1,58,650,D,different_key,D,correct,different_key,normal16,0.1,59,590,S,different_key,D,incorrect,same_key,normal16,0.1,60,904,S,same_key,S,correct,different_key,normal16,0.1,61,726,D,different_key,D,correct,different_key,normal16,0.1,62,1138,D,same_key,S,incorrect,different_key,normal16,0.1,63,1118,D,same_key,D,correct,different_key,normal16,0.1,64,1254,D,same_key,D,correct,same_key,normal16,0.1,65,512,D,same_key,D,correct,same_key,normal16,0.1,66,532,D,same_key,D,correct,same_key,normal16,0.1,67,610,D,same_key,D,correct,same_key,normal16,0.1,68,823,D,same_key,D,correct,same_key,normal16,0.1,69,728,D,same_key,D,correct,same_key,normal16,0.1,70,589,D,same_key,D,correct,same_key,normal16,0.1,71,630,D,same_key,D,correct,same_key,normal16,0.1,72,611,D,same_key,D,correct,same_key,normal16,0.1,73,745,D,same_key,D,correct,same_key,normal16,0.1,74,1080,D,same_key,D,correct,same_key,normal16,0.1,75,724,D,same_key,D,correct,same_key,normal16,0.1,76,904,D,same_key,D,correct,same_key,normal16,0.1,77,668,D,same_key,D,correct,same_key,normal16,0.1,78,668,D,same_key,D,correct,same_key,normal17,0.25,2,1568,S,,S,correct,,normal17,0.25,3,610,S,same_key,S,correct,same_key,normal17,0.25,4,726,D,different_key,D,correct,different_key,normal17,0.25,5,1079,D,same_key,D,correct,same_key,normal17,0.25,6,884,S,different_key,S,correct,different_key,normal17,0.25,7,983,D,different_key,D,correct,different_key,normal17,0.25,8,903,S,different_key,S,correct,different_key,normal17,0.25,9,685,S,same_key,S,correct,same_key,normal17,0.25,10,884,D,different_key,D,correct,different_key,normal17,0.25,11,804,D,same_key,D,correct,same_key,normal17,0.25,12,1548,S,different_key,S,correct,different_key,normal17,0.25,13,650,S,same_key,S,correct,same_key,normal17,0.25,14,608,S,same_key,S,correct,same_key,normal17,0.25,15,610,S,same_key,S,correct,same_key,normal17,0.25,16,746,D,different_key,D,correct,different_key,normal17,0.25,17,904,D,same_key,D,correct,same_key,normal17,0.25,18,1156,D,same_key,D,correct,same_key,normal17,0.25,19,668,D,same_key,D,correct,same_key,normal17,0.25,20,1158,D,same_key,D,correct,same_key,normal17,0.25,21,884,S,different_key,S,correct,different_key,normal17,0.25,22,688,S,same_key,S,correct,same_key,normal17,0.25,23,767,D,different_key,D,correct,different_key,normal17,0.25,24,1115,D,same_key,D,correct,same_key,normal17,0.25,25,905,S,different_key,S,correct,different_key,normal17,0.25,26,1372,D,different_key,D,correct,different_key,normal17,0.25,27,1078,D,same_key,D,correct,same_key,normal17,0.25,28,687,S,different_key,S,correct,different_key,normal17,0.25,29,866,S,same_key,S,correct,same_key,normal17,0.25,30,588,S,same_key,S,correct,same_key,normal17,0.25,31,708,D,different_key,D,correct,different_key,normal17,0.25,32,902,S,different_key,S,correct,different_key,normal17,0.25,33,884,D,different_key,D,correct,different_key,normal17,0.25,34,844,D,same_key,D,correct,same_key,normal17,0.25,35,648,D,same_key,D,correct,same_key,normal17,0.25,36,728,D,same_key,D,correct,same_key,normal17,0.25,37,648,S,different_key,S,correct,different_key,normal17,0.25,38,1158,D,different_key,D,correct,different_key,normal17,0.25,39,824,D,same_key,S,incorrect,different_key,normal17,0.25,40,1178,S,different_key,S,correct,same_key,normal17,0.25,41,2660,D,different_key,D,correct,different_key,normal17,0.25,42,686,S,different_key,D,incorrect,same_key,normal17,0.25,43,962,S,same_key,S,correct,different_key,normal17,0.25,44,1139,D,different_key,D,correct,different_key,normal17,0.25,45,746,D,same_key,D,correct,same_key,normal17,0.25,46,707,S,different_key,S,correct,different_key,normal17,0.25,47,844,D,different_key,D,correct,different_key,normal17,0.25,48,766,D,same_key,D,correct,same_key,normal17,0.25,49,766,S,different_key,S,correct,different_key,normal17,0.25,50,962,D,different_key,D,correct,different_key,normal17,0.25,51,864,D,same_key,D,correct,same_key,normal17,0.25,52,706,D,same_key,D,correct,same_key,normal17,0.25,53,651,S,different_key,S,correct,different_key,normal17,0.25,54,788,S,same_key,S,correct,same_key,normal17,0.25,55,685,S,same_key,S,correct,same_key,normal17,0.25,56,726,D,different_key,D,correct,different_key,normal17,0.25,57,1294,D,same_key,D,correct,same_key,normal17,0.25,58,668,D,same_key,D,correct,same_key,normal17,0.25,59,668,D,same_key,D,correct,same_key,normal17,0.25,60,708,D,same_key,D,correct,same_key,normal17,0.25,61,1372,D,same_key,D,correct,same_key,normal17,0.25,62,708,S,different_key,S,correct,different_key,normal17,0.25,63,610,S,same_key,S,correct,same_key,normal17,0.25,64,689,S,same_key,S,correct,same_key,normal17,0.25,65,706,D,different_key,D,correct,different_key,normal18,0.9,2,766,S,,S,correct,,normal18,0.9,3,570,S,same_key,S,correct,same_key,normal18,0.9,4,766,D,different_key,D,correct,different_key,normal18,0.9,5,767,S,different_key,S,correct,different_key,normal18,0.9,6,669,S,same_key,S,correct,same_key,normal18,0.9,7,862,S,same_key,S,correct,same_key,normal18,0.9,8,671,S,same_key,S,correct,same_key,normal18,0.9,9,649,S,same_key,S,correct,same_key,normal18,0.9,10,568,S,same_key,S,correct,same_key,normal18,0.9,11,688,D,different_key,D,correct,different_key,normal18,0.9,12,728,S,different_key,S,correct,different_key,normal18,0.9,13,532,S,same_key,S,correct,same_key,normal18,0.9,14,610,S,same_key,S,correct,same_key,normal18,0.9,15,590,S,same_key,S,correct,same_key,normal18,0.9,16,590,S,same_key,S,correct,same_key,normal18,0.9,17,669,S,same_key,S,correct,same_key,normal18,0.9,18,570,S,same_key,S,correct,same_key,normal18,0.9,19,608,S,same_key,S,correct,same_key,normal18,0.9,20,630,S,same_key,S,correct,same_key,normal18,0.9,21,591,S,same_key,S,correct,same_key,normal18,0.9,22,589,S,same_key,S,correct,same_key,normal18,0.9,23,749,D,different_key,D,correct,different_key,normal18,0.9,24,567,S,different_key,S,correct,different_key,normal18,0.9,25,512,S,same_key,S,correct,same_key,normal18,0.9,26,532,S,same_key,S,correct,same_key,normal18,0.9,27,572,S,same_key,S,correct,same_key,normal18,0.9,28,706,D,different_key,D,correct,different_key,normal18,0.9,29,884,S,different_key,S,correct,different_key,normal18,0.9,30,492,D,different_key,S,incorrect,same_key,normal18,0.9,31,864,S,different_key,S,correct,same_key,normal18,0.9,32,414,S,same_key,S,correct,same_key,normal18,0.9,33,708,D,different_key,D,correct,different_key,normal18,0.9,34,882,S,different_key,S,correct,different_key,normal18,0.9,35,590,S,same_key,S,correct,same_key,normal18,0.9,36,552,S,same_key,S,correct,same_key,normal18,0.9,37,746,D,different_key,D,correct,different_key,normal18,0.9,38,1118,D,same_key,S,incorrect,different_key,normal18,0.9,39,1156,S,different_key,S,correct,same_key,normal18,0.9,40,610,S,same_key,S,correct,same_key,normal18,0.9,41,590,S,same_key,S,correct,same_key,normal18,0.9,42,631,S,same_key,S,correct,same_key,normal18,0.9,43,726,S,same_key,S,correct,same_key,normal18,0.9,44,688,S,same_key,S,correct,same_key,normal18,0.9,45,708,S,same_key,S,correct,same_key,normal18,0.9,46,861,S,same_key,S,correct,same_key,normal18,0.9,47,631,S,same_key,S,correct,same_key,normal18,0.9,48,609,S,same_key,S,correct,same_key,normal18,0.9,49,668,S,same_key,S,correct,same_key,normal18,0.9,50,648,S,same_key,S,correct,same_key,normal18,0.9,51,690,S,same_key,S,correct,same_key,normal18,0.9,52,668,S,same_key,S,correct,same_key,normal18,0.9,53,550,S,same_key,S,correct,same_key,normal18,0.9,54,746,D,different_key,D,correct,different_key,normal18,0.9,55,572,S,different_key,S,correct,different_key,normal18,0.9,56,530,S,same_key,S,correct,same_key,normal18,0.9,57,532,S,same_key,S,correct,same_key,normal18,0.9,58,570,S,same_key,S,correct,same_key,normal18,0.9,59,532,S,same_key,S,correct,same_key,normal18,0.9,60,532,S,same_key,S,correct,same_key,normal18,0.9,61,512,S,same_key,S,correct,same_key,normal18,0.9,62,532,S,same_key,S,correct,same_key,normal18,0.9,63,532,S,same_key,S,correct,same_key,normal18,0.9,64,530,S,same_key,S,correct,same_key,normal18,0.9,65,512,S,same_key,S,correct,same_key,normal18,0.9,66,532,S,same_key,S,correct,same_key,normal18,0.9,67,532,S,same_key,S,correct,same_key,normal18,0.9,68,452,S,same_key,S,correct,same_key,normal18,0.9,69,532,S,same_key,S,correct,same_key,normal18,0.9,70,492,S,same_key,S,correct,same_key,normal18,0.9,71,572,S,same_key,S,correct,same_key,normal18,0.9,72,435,S,same_key,S,correct,same_key,normal18,0.9,73,510,S,same_key,S,correct,same_key,normal18,0.9,74,532,S,same_key,S,correct,same_key,normal18,0.9,75,454,S,same_key,S,correct,same_key,normal18,0.9,76,492,S,same_key,S,correct,same_key,normal18,0.9,77,570,S,same_key,S,correct,same_key,normal18,0.9,78,474,S,same_key,S,correct,same_key,normal18,0.9,79,569,S,same_key,S,correct,same_key,normal18,0.9,80,533,S,same_key,S,correct,same_key,normal18,0.9,81,531,S,same_key,S,correct,same_key,normal18,0.9,82,434,S,same_key,S,correct,same_key,normal18,0.9,83,472,S,same_key,S,correct,same_key,normal18,0.9,84,474,S,same_key,S,correct,same_key,normal18,0.9,85,472,S,same_key,S,correct,same_key,normal18,0.9,86,474,S,same_key,S,correct,same_key,normal18,0.9,87,530,S,same_key,S,correct,same_key,normal18,0.9,88,513,S,same_key,S,correct,same_key,normal18,0.9,89,552,S,same_key,S,correct,same_key,normal18,0.9,90,471,S,same_key,S,correct,same_key,normal18,0.9,91,532,S,same_key,S,correct,same_key,normal18,0.9,92,454,S,same_key,S,correct,same_key,normal18,0.9,93,512,S,same_key,S,correct,same_key,normal18,0.9,94,550,S,same_key,S,correct,same_key,normal18,0.9,95,512,S,same_key,S,correct,same_key,normal18,0.9,96,570,S,same_key,S,correct,same_key,normal18,0.9,97,512,D,different_key,S,incorrect,same_key,normal18,0.9,98,1040,S,different_key,S,correct,same_key,normal19,0.1,2,689,S,,S,correct,,normal19,0.1,3,725,D,different_key,D,correct,different_key,normal19,0.1,4,922,D,same_key,D,correct,same_key,normal19,0.1,5,670,D,same_key,D,correct,same_key,normal19,0.1,6,726,D,same_key,D,correct,same_key,normal19,0.1,7,648,D,same_key,D,correct,same_key,normal19,0.1,8,630,D,same_key,D,correct,same_key,normal19,0.1,9,648,D,same_key,D,correct,same_key,normal19,0.1,10,669,D,same_key,D,correct,same_key,normal19,0.1,11,650,D,same_key,D,correct,same_key,normal19,0.1,12,650,D,same_key,D,correct,same_key,normal19,0.1,13,588,D,same_key,D,correct,same_key,normal19,0.1,14,532,D,same_key,D,correct,same_key,normal19,0.1,15,551,D,same_key,D,correct,same_key,normal19,0.1,16,589,D,same_key,D,correct,same_key,normal19,0.1,17,610,D,same_key,D,correct,same_key,normal19,0.1,18,610,D,same_key,D,correct,same_key,normal19,0.1,19,570,D,same_key,D,correct,same_key,normal19,0.1,20,610,D,same_key,D,correct,same_key,normal19,0.1,21,630,D,same_key,D,correct,same_key,normal19,0.1,22,708,D,same_key,D,correct,same_key,normal19,0.1,23,844,D,same_key,D,correct,same_key,normal19,0.1,24,629,D,same_key,D,correct,same_key,normal19,0.1,25,629,D,same_key,D,correct,same_key,normal19,0.1,26,746,D,same_key,D,correct,same_key,normal19,0.1,27,651,D,same_key,D,correct,same_key,normal19,0.1,28,641,D,same_key,D,correct,same_key,normal19,0.1,29,675,D,same_key,D,correct,same_key,normal19,0.1,30,649,D,same_key,D,correct,same_key,normal19,0.1,31,786,S,different_key,S,correct,different_key,normal19,0.1,32,688,D,different_key,D,correct,different_key,normal19,0.1,33,688,D,same_key,D,correct,same_key,normal19,0.1,34,806,D,same_key,D,correct,same_key,normal19,0.1,35,590,D,same_key,D,correct,same_key,normal19,0.1,36,630,D,same_key,D,correct,same_key,normal19,0.1,37,666,D,same_key,D,correct,same_key,normal19,0.1,38,690,D,same_key,D,correct,same_key,normal19,0.1,39,628,D,same_key,D,correct,same_key,normal19,0.1,40,630,D,same_key,D,correct,same_key,normal19,0.1,41,706,D,same_key,D,correct,same_key,normal19,0.1,42,650,D,same_key,D,correct,same_key,normal19,0.1,43,786,S,different_key,S,correct,different_key,normal19,0.1,44,668,D,different_key,D,correct,different_key,normal19,0.1,45,747,D,same_key,D,correct,same_key,normal19,0.1,46,649,D,same_key,D,correct,same_key,normal19,0.1,47,688,D,same_key,D,correct,same_key,normal19,0.1,48,786,D,same_key,D,correct,same_key,normal19,0.1,49,629,D,same_key,D,correct,same_key,normal19,0.1,50,708,D,same_key,D,correct,same_key,normal19,0.1,51,688,D,same_key,D,correct,same_key,normal19,0.1,52,726,D,same_key,D,correct,same_key,normal19,0.1,53,707,D,same_key,D,correct,same_key,normal19,0.1,54,746,D,same_key,D,correct,same_key,normal19,0.1,55,688,D,same_key,D,correct,same_key,normal19,0.1,56,846,D,same_key,D,correct,same_key,normal19,0.1,57,766,D,same_key,D,correct,same_key,normal19,0.1,58,746,D,same_key,D,correct,same_key,normal19,0.1,59,904,D,same_key,D,correct,same_key,normal19,0.1,60,1019,D,same_key,D,correct,same_key,normal19,0.1,61,883,D,same_key,D,correct,same_key,normal19,0.1,62,804,D,same_key,D,correct,same_key,normal19,0.1,63,864,S,different_key,S,correct,different_key,normal19,0.1,64,688,D,different_key,D,correct,different_key,normal19,0.1,65,650,D,same_key,D,correct,same_key,normal19,0.1,66,706,D,same_key,D,correct,same_key,normal19,0.1,67,610,D,same_key,D,correct,same_key,normal19,0.1,68,630,D,same_key,D,correct,same_key,normal19,0.1,69,610,D,same_key,D,correct,same_key,normal19,0.1,70,688,D,same_key,D,correct,same_key,normal19,0.1,71,608,D,same_key,D,correct,same_key,normal19,0.1,72,630,D,same_key,D,correct,same_key,normal19,0.1,73,611,D,same_key,D,correct,same_key,normal19,0.1,74,668,D,same_key,D,correct,same_key,normal19,0.1,75,726,D,same_key,D,correct,same_key,normal19,0.1,76,590,D,same_key,D,correct,same_key,normal19,0.1,77,669,D,same_key,D,correct,same_key,normal19,0.1,78,648,D,same_key,D,correct,same_key,normal19,0.1,79,630,D,same_key,D,correct,same_key,normal19,0.1,80,650,D,same_key,D,correct,same_key,normal19,0.1,81,686,D,same_key,D,correct,same_key,normal19,0.1,82,708,D,same_key,D,correct,same_key,normal19,0.1,83,688,D,same_key,D,correct,same_key,normal19,0.1,84,980,D,same_key,D,correct,same_key,normal19,0.1,85,650,D,same_key,D,correct,same_key,normal19,0.1,86,766,S,different_key,S,correct,different_key,normal20,0.75,2,708,S,,S,correct,,normal20,0.75,3,570,S,same_key,S,correct,same_key,normal20,0.75,4,572,S,same_key,S,correct,same_key,normal20,0.75,5,530,S,same_key,S,correct,same_key,normal20,0.75,6,789,D,different_key,D,correct,different_key,normal20,0.75,7,862,D,same_key,D,correct,same_key,normal20,0.75,8,786,S,different_key,S,correct,different_key,normal20,0.75,9,766,D,different_key,D,correct,different_key,normal20,0.75,10,805,S,different_key,S,correct,different_key,normal20,0.75,11,688,S,same_key,S,correct,same_key,normal20,0.75,12,668,S,same_key,S,correct,same_key,normal20,0.75,13,747,D,different_key,D,correct,different_key,normal20,0.75,14,805,S,different_key,S,correct,different_key,normal20,0.75,15,708,S,same_key,S,correct,same_key,normal20,0.75,16,726,D,different_key,D,correct,different_key,normal20,0.75,17,630,S,different_key,S,correct,different_key,normal20,0.75,18,726,S,same_key,S,correct,same_key,normal20,0.75,19,592,S,same_key,S,correct,same_key,normal20,0.75,20,530,S,same_key,S,correct,same_key,normal20,0.75,21,728,D,different_key,D,correct,different_key,normal20,0.75,22,552,S,different_key,S,correct,different_key,normal20,0.75,23,608,S,same_key,S,correct,same_key,normal20,0.75,24,572,S,same_key,S,correct,same_key,normal20,0.75,25,570,S,same_key,S,correct,same_key,normal20,0.75,26,512,S,same_key,S,correct,same_key,normal20,0.75,27,572,S,same_key,S,correct,same_key,normal20,0.75,28,570,S,same_key,S,correct,same_key,normal20,0.75,29,552,S,same_key,S,correct,same_key,normal20,0.75,30,532,S,same_key,S,correct,same_key,normal20,0.75,31,590,S,same_key,S,correct,same_key,normal20,0.75,32,590,S,same_key,S,correct,same_key,normal20,0.75,33,631,S,same_key,S,correct,same_key,normal20,0.75,34,688,S,same_key,S,correct,same_key,normal20,0.75,35,612,S,same_key,S,correct,same_key,normal20,0.75,36,587,S,same_key,S,correct,same_key,normal20,0.75,37,553,S,same_key,S,correct,same_key,normal20,0.75,38,726,D,different_key,D,correct,different_key,normal20,0.75,39,512,S,different_key,S,correct,different_key,normal20,0.75,40,493,S,same_key,S,correct,same_key,normal20,0.75,41,550,S,same_key,S,correct,same_key,normal20,0.75,42,746,D,different_key,D,correct,different_key,normal20,0.75,43,610,S,different_key,S,correct,different_key,normal20,0.75,44,806,D,different_key,D,correct,different_key,normal20,0.75,45,844,S,different_key,S,correct,different_key,normal20,0.75,46,729,S,same_key,S,correct,same_key,normal20,0.75,47,785,D,different_key,D,correct,different_key,normal20,0.75,48,706,S,different_key,S,correct,different_key,normal20,0.75,49,572,S,same_key,S,correct,same_key,normal20,0.75,50,570,S,same_key,S,correct,same_key,normal20,0.75,51,553,S,same_key,S,correct,same_key,normal20,0.75,52,745,D,different_key,D,correct,different_key,normal20,0.75,53,746,D,same_key,D,correct,same_key,normal20,0.75,54,806,S,different_key,S,correct,different_key,normal20,0.75,55,590,S,same_key,S,correct,same_key,normal20,0.75,56,1118,D,different_key,D,correct,different_key,normal20,0.75,57,844,S,different_key,S,correct,different_key,normal20,0.75,58,747,D,different_key,D,correct,different_key,normal20,0.75,59,688,S,different_key,S,correct,different_key,normal20,0.75,60,667,S,same_key,S,correct,same_key,normal20,0.75,61,651,S,same_key,S,correct,same_key,normal20,0.75,62,569,S,same_key,S,correct,same_key,normal20,0.75,63,571,S,same_key,S,correct,same_key,normal20,0.75,64,728,D,different_key,D,correct,different_key,normal20,0.75,65,979,D,same_key,D,correct,same_key,normal20,0.75,66,668,S,different_key,S,correct,different_key,normal20,0.75,67,668,S,same_key,S,correct,same_key,normal20,0.75,68,670,S,same_key,S,correct,same_key,normal20,0.75,69,608,S,same_key,S,correct,same_key,normal20,0.75,70,826,D,different_key,D,correct,different_key,normal20,0.75,71,726,S,different_key,S,correct,different_key,normal20,0.75,72,630,S,same_key,S,correct,same_key,normal20,0.75,73,610,S,same_key,S,correct,same_key,normal20,0.75,74,613,S,same_key,S,correct,same_key,normal20,0.75,75,625,S,same_key,S,correct,same_key,normal20,0.75,76,610,S,same_key,S,correct,same_key,normal20,0.75,77,728,S,same_key,S,correct,same_key,normal20,0.75,78,610,S,same_key,S,correct,same_key,normal20,0.75,79,630,S,same_key,S,correct,same_key,normal20,0.75,80,668,S,same_key,S,correct,same_key,normal20,0.75,81,648,S,same_key,S,correct,same_key,normal20,0.75,82,610,S,same_key,S,correct,same_key,normal20,0.75,83,572,S,same_key,S,correct,same_key,normal20,0.75,84,550,S,same_key,S,correct,same_key,normal20,0.75,85,611,S,same_key,S,correct,same_key,normal20,0.75,86,612,S,same_key,S,correct,same_key,normal20,0.75,87,764,D,different_key,D,correct,different_key,normal20,0.75,88,728,D,same_key,D,correct,same_key,normal20,0.75,89,705,S,different_key,S,correct,different_key,normal21,0.1,2,1393,D,,D,correct,,normal21,0.1,3,709,D,same_key,D,correct,same_key,normal21,0.1,4,705,D,same_key,D,correct,same_key,normal21,0.1,5,708,D,same_key,D,correct,same_key,normal21,0.1,6,668,D,same_key,D,correct,same_key,normal21,0.1,7,766,S,different_key,S,correct,different_key,normal21,0.1,8,670,D,different_key,D,correct,different_key,normal21,0.1,9,766,D,same_key,D,correct,same_key,normal21,0.1,10,668,D,same_key,D,correct,same_key,normal21,0.1,11,630,D,same_key,D,correct,same_key,normal21,0.1,12,608,D,same_key,D,correct,same_key,normal21,0.1,13,708,D,same_key,D,correct,same_key,normal21,0.1,14,651,D,same_key,D,correct,same_key,normal21,0.1,15,630,D,same_key,D,correct,same_key,normal21,0.1,16,746,D,same_key,D,correct,same_key,normal21,0.1,17,648,D,same_key,D,correct,same_key,normal21,0.1,18,671,D,same_key,D,correct,same_key,normal21,0.1,19,687,D,same_key,D,correct,same_key,normal21,0.1,20,785,D,same_key,D,correct,same_key,normal21,0.1,21,805,S,different_key,S,correct,different_key,normal21,0.1,22,707,D,different_key,D,correct,different_key,normal21,0.1,23,1040,D,same_key,D,correct,same_key,normal21,0.1,24,688,D,same_key,D,correct,same_key,normal21,0.1,25,786,D,same_key,D,correct,same_key,normal21,0.1,26,726,D,same_key,D,correct,same_key,normal21,0.1,27,708,D,same_key,D,correct,same_key,normal21,0.1,28,648,D,same_key,D,correct,same_key,normal21,0.1,29,922,D,same_key,D,correct,same_key,normal21,0.1,30,808,S,different_key,S,correct,different_key,normal21,0.1,31,882,D,different_key,D,correct,different_key,normal21,0.1,32,884,D,same_key,D,correct,same_key,normal21,0.1,33,706,D,same_key,D,correct,same_key,normal21,0.1,34,650,D,same_key,D,correct,same_key,normal21,0.1,35,648,D,same_key,D,correct,same_key,normal21,0.1,36,786,S,different_key,S,correct,different_key,normal21,0.1,37,1139,D,different_key,D,correct,different_key,normal21,0.1,38,864,D,same_key,D,correct,same_key,normal21,0.1,39,766,D,same_key,D,correct,same_key,normal21,0.1,40,649,D,same_key,D,correct,same_key,normal21,0.1,41,707,D,same_key,D,correct,same_key,normal21,0.1,42,687,D,same_key,D,correct,same_key,normal21,0.1,43,746,D,same_key,D,correct,same_key,normal21,0.1,44,748,D,same_key,D,correct,same_key,normal21,0.1,45,844,S,different_key,S,correct,different_key,normal21,0.1,46,689,D,different_key,D,correct,different_key,normal21,0.1,47,921,D,same_key,D,correct,same_key,normal21,0.1,48,768,D,same_key,D,correct,same_key,normal21,0.1,49,847,D,same_key,D,correct,same_key,normal21,0.1,50,645,D,same_key,D,correct,same_key,normal21,0.1,51,590,D,same_key,D,correct,same_key,normal21,0.1,52,748,D,same_key,D,correct,same_key,normal21,0.1,53,648,D,same_key,D,correct,same_key,normal21,0.1,54,630,D,same_key,D,correct,same_key,normal21,0.1,55,610,D,same_key,D,correct,same_key,normal21,0.1,56,806,S,different_key,S,correct,different_key,normal21,0.1,57,688,D,different_key,D,correct,different_key,normal21,0.1,58,1548,D,same_key,D,correct,same_key,normal21,0.1,59,650,D,same_key,D,correct,same_key,normal21,0.1,60,629,D,same_key,D,correct,same_key,normal21,0.1,61,552,D,same_key,D,correct,same_key,normal21,0.1,62,786,D,same_key,D,correct,same_key,normal21,0.1,63,609,D,same_key,D,correct,same_key,normal21,0.1,64,611,D,same_key,D,correct,same_key,normal21,0.1,65,667,D,same_key,D,correct,same_key,normal21,0.1,66,708,D,same_key,D,correct,same_key,normal21,0.1,67,706,S,different_key,S,correct,different_key,normal21,0.1,68,924,D,different_key,D,correct,different_key,normal21,0.1,69,1216,D,same_key,D,correct,same_key,normal21,0.1,70,824,S,different_key,S,correct,different_key,normal21,0.1,71,1355,D,different_key,D,correct,different_key,normal21,0.1,72,1097,D,same_key,D,correct,same_key,normal21,0.1,73,648,D,same_key,D,correct,same_key,normal21,0.1,74,708,D,same_key,D,correct,same_key,normal21,0.1,75,766,D,same_key,D,correct,same_key,normal21,0.1,76,746,D,same_key,D,correct,same_key,normal21,0.1,77,672,D,same_key,D,correct,same_key,normal21,0.1,78,646,S,different_key,D,incorrect,same_key,normal22,0.25,2,726,D,,D,correct,,normal22,0.25,3,903,D,same_key,D,correct,same_key,normal22,0.25,4,708,D,same_key,D,correct,same_key,normal22,0.25,5,788,S,different_key,S,correct,different_key,normal22,0.25,6,1038,D,different_key,D,correct,different_key,normal22,0.25,7,1312,D,same_key,D,correct,same_key,normal22,0.25,8,690,S,different_key,S,correct,different_key,normal22,0.25,9,590,S,same_key,S,correct,same_key,normal22,0.25,10,746,D,different_key,D,correct,different_key,normal22,0.25,11,844,D,same_key,D,correct,same_key,normal22,0.25,12,942,S,different_key,S,correct,different_key,normal22,0.25,13,610,S,same_key,S,correct,same_key,normal22,0.25,14,688,D,different_key,D,correct,different_key,normal22,0.25,15,1120,D,same_key,D,correct,same_key,normal22,0.25,16,668,S,different_key,S,correct,different_key,normal22,0.25,17,628,S,same_key,S,correct,same_key,normal22,0.25,18,670,D,different_key,D,correct,different_key,normal22,0.25,19,960,D,same_key,D,correct,same_key,normal22,0.25,20,650,D,same_key,D,correct,same_key,normal22,0.25,21,825,S,different_key,S,correct,different_key,normal22,0.25,22,983,D,different_key,D,correct,different_key,normal22,0.25,23,920,D,same_key,D,correct,same_key,normal22,0.25,24,727,S,different_key,S,correct,different_key,normal22,0.25,25,689,S,same_key,S,correct,same_key,normal22,0.25,26,687,D,different_key,D,correct,different_key,normal22,0.25,27,847,D,same_key,D,correct,same_key,normal22,0.25,28,646,D,same_key,D,correct,same_key,normal22,0.25,29,630,D,same_key,D,correct,same_key,normal22,0.25,30,746,S,different_key,S,correct,different_key,normal22,0.25,31,668,D,different_key,D,correct,different_key,normal22,0.25,32,982,D,same_key,D,correct,same_key,normal22,0.25,33,650,D,same_key,D,correct,same_key,normal22,0.25,34,608,D,same_key,D,correct,same_key,normal22,0.25,35,688,S,different_key,S,correct,different_key,normal22,0.25,36,668,D,different_key,D,correct,different_key,normal22,0.25,37,1021,D,same_key,D,correct,same_key,normal22,0.25,38,649,D,same_key,D,correct,same_key,normal22,0.25,39,630,S,different_key,S,correct,different_key,normal22,0.25,40,628,D,different_key,D,correct,different_key,normal22,0.25,41,864,S,different_key,S,correct,different_key,normal22,0.25,42,1198,D,different_key,D,correct,different_key,normal22,0.25,43,864,D,same_key,D,correct,same_key,normal22,0.25,44,767,S,different_key,S,correct,different_key,normal22,0.25,45,766,S,same_key,S,correct,same_key,normal22,0.25,46,668,D,different_key,D,correct,different_key,normal22,0.25,47,786,D,same_key,D,correct,same_key,normal22,0.25,48,1351,D,same_key,D,correct,same_key,normal22,0.25,49,668,D,same_key,D,correct,same_key,normal22,0.25,50,688,D,same_key,D,correct,same_key,normal22,0.25,51,688,S,different_key,S,correct,different_key,normal22,0.25,52,650,D,different_key,D,correct,different_key,normal22,0.25,53,866,S,different_key,S,correct,different_key,normal22,0.25,54,744,S,same_key,S,correct,same_key,normal22,0.25,55,806,D,different_key,D,correct,different_key,normal22,0.25,56,768,S,different_key,S,correct,different_key,normal22,0.25,57,764,S,same_key,S,correct,same_key,normal22,0.25,58,726,D,different_key,D,correct,different_key,normal22,0.25,59,922,D,same_key,D,correct,same_key,normal22,0.25,60,768,D,same_key,D,correct,same_key,normal22,0.25,61,766,S,different_key,S,correct,different_key,normal22,0.25,62,688,S,same_key,S,correct,same_key,normal22,0.25,63,746,D,different_key,D,correct,different_key,normal22,0.25,64,804,D,same_key,D,correct,same_key,normal22,0.25,65,708,S,different_key,S,correct,different_key,normal22,0.25,66,708,D,different_key,D,correct,different_key,normal22,0.25,67,707,D,same_key,D,correct,same_key,normal22,0.25,68,1039,D,same_key,D,correct,same_key,normal22,0.25,69,671,D,same_key,D,correct,same_key,normal22,0.25,70,765,D,same_key,D,correct,same_key,normal22,0.25,71,608,D,same_key,D,correct,same_key,normal22,0.25,72,668,D,same_key,D,correct,same_key,normal22,0.25,73,592,D,same_key,D,correct,same_key,normal22,0.25,74,648,D,same_key,D,correct,same_key,normal22,0.25,75,632,D,same_key,D,correct,same_key,normal22,0.25,76,684,D,same_key,D,correct,same_key,normal22,0.25,77,651,D,same_key,D,correct,same_key,normal22,0.25,78,647,D,same_key,D,correct,same_key,normal23,0.1,2,1055,D,,D,correct,,normal23,0.1,3,881,S,different_key,S,correct,different_key,normal23,0.1,4,1158,D,different_key,D,correct,different_key,normal23,0.1,5,805,D,same_key,D,correct,same_key,normal23,0.1,6,648,D,same_key,D,correct,same_key,normal23,0.1,7,1080,D,same_key,D,correct,same_key,normal23,0.1,8,630,D,same_key,D,correct,same_key,normal23,0.1,9,922,D,same_key,D,correct,same_key,normal23,0.1,10,627,D,same_key,D,correct,same_key,normal23,0.1,11,610,D,same_key,D,correct,same_key,normal23,0.1,12,628,D,same_key,D,correct,same_key,normal23,0.1,13,630,D,same_key,D,correct,same_key,normal23,0.1,14,552,D,same_key,D,correct,same_key,normal23,0.1,15,608,D,same_key,D,correct,same_key,normal23,0.1,16,572,D,same_key,D,correct,same_key,normal23,0.1,17,570,D,same_key,D,correct,same_key,normal23,0.1,18,532,D,same_key,D,correct,same_key,normal23,0.1,19,550,D,same_key,D,correct,same_key,normal23,0.1,20,590,D,same_key,D,correct,same_key,normal23,0.1,21,630,D,same_key,D,correct,same_key,normal23,0.1,22,590,D,same_key,D,correct,same_key,normal23,0.1,23,630,D,same_key,D,correct,same_key,normal23,0.1,24,610,D,same_key,D,correct,same_key,normal23,0.1,25,590,D,same_key,D,correct,same_key,normal